SampleNumber MagX MagY MagZ AccX AccY AccZ GyroX GyroY GyroZ
1 -13.27 -8.18 -101.22 -0.43 -0.86 10.79 3.26 2.73 -2.24
2 -13.27 -8.18 -101.22 -0.43 -0.86 10.79 -4.14 -2.53 2.47
3 -13.00 -8.55 -101.12 -0.43 -0.90 10.83 -4.14 -2.53 0.95
4 -13.00 -8.55 -101.12 -0.43 -0.78 10.71 -1.42 0.37 0.95
5 -13.00 -8.55 -101.12 -0.43 -0.90 10.67 -1.35 0.46 1.60
6 -13.00 -8.55 -101.12 -0.43 -0.90 10.71 -0.30 0.43 1.01
7 -13.00 -8.55 -101.12 -0.47 -0.86 10.67 0.10 -0.02 0.29
8 -13.00 -8.55 -101.12 -0.47 -0.94 10.71 0.03 0.03 0.33
9 -13.00 -8.55 -101.12 -0.51 -0.94 10.75 0.02 0.04 -0.21
10 -13.00 -8.55 -101.12 -0.47 -0.94 10.67 0.02 0.04 0.02
11 -13.00 -8.55 -101.12 -0.47 -0.94 10.63 0.02 0.04 0.05
12 -13.00 -8.55 -101.12 -0.51 -0.82 10.59 0.02 0.03 0.05
13 -13.00 -8.55 -101.12 -0.63 -0.86 10.75 -0.02 0.02 0.05
14 -13.00 -8.55 -101.12 -0.59 -0.71 10.83 -0.06 0.02 0.05
15 -13.00 -8.55 -101.12 -0.55 -0.78 10.71 -0.05 0.02 0.05
16 -13.45 -8.82 -101.02 -0.51 -0.55 10.75 -0.04 0.02 0.06
17 -13.45 -8.82 -101.02 -0.55 -0.71 10.63 -0.02 0.03 0.05
18 -13.45 -8.82 -101.02 -0.47 -0.82 10.67 -0.01 0.04 0.02
19 -13.45 -8.82 -101.02 -0.55 -0.78 10.75 0.01 0.04 0.02
20 -13.45 -8.82 -101.02 -0.43 -0.82 10.67 0.03 0.04 0.01
21 -13.45 -8.82 -101.02 -0.55 -0.86 10.63 0.06 0.04 0.01
22 -13.45 -8.82 -101.02 -0.55 -0.86 10.59 0.09 0.04 0.03
23 -12.91 -8.82 -101.12 -0.59 -0.94 10.71 0.08 0.04 0.04
24 -12.91 -8.82 -101.12 -0.51 -0.82 10.63 0.08 0.04 0.04
25 -12.91 -8.82 -101.12 -0.47 -0.82 10.71 0.08 0.04 0.04
26 -12.91 -8.82 -101.12 -0.51 -0.75 10.67 0.07 0.03 0.03
27 -12.91 -8.82 -101.12 -0.47 -0.78 10.71 0.07 0.03 0.03
28 -12.91 -8.82 -101.12 -0.47 -0.78 10.63 0.06 0.03 0.02
29 -13.09 -9.00 -101.22 -0.47 -0.71 10.75 0.04 0.03 0.02
30 -13.09 -9.00 -101.22 -0.51 -0.78 10.90 0.05 0.03 0.02
31 -13.09 -9.00 -101.22 -0.43 -0.82 10.94 0.06 0.03 0.02
32 -13.09 -9.00 -101.22 -0.43 -0.82 10.98 0.02 0.04 0.02
33 -13.09 -9.00 -101.22 -0.55 -0.82 10.98 0.01 0.04 0.01
34 -13.09 -9.00 -101.22 -0.59 -0.78 10.63 0.03 0.04 0.03
35 -13.09 -9.00 -101.22 -0.63 -0.78 10.79 0.05 0.04 0.04
36 -13.00 -8.91 -101.12 -0.63 -0.71 10.55 0.05 0.04 0.04
37 -13.00 -8.91 -101.12 -0.55 -0.75 10.59 0.04 0.04 0.04
38 -13.00 -8.91 -101.12 -0.63 -0.71 10.43 0.04 0.04 0.01
39 -13.00 -8.91 -101.12 -0.71 -0.71 10.63 0.04 0.04 0.01
40 -13.00 -8.91 -101.12 -0.71 -0.67 10.87 0.04 0.04 0.01
41 -13.00 -8.91 -101.12 -0.75 -0.63 10.67 0.05 0.03 0.02
42 -13.00 -8.91 -101.12 -0.78 -0.71 10.59 0.06 0.03 0.02
43 -13.00 -9.45 -101.22 -0.82 -0.71 10.43 0.09 0.04 0.02
44 -13.00 -9.45 -101.22 -0.86 -0.78 10.36 0.10 0.03 0.03
45 -13.00 -9.45 -101.22 -0.71 -0.67 10.71 0.09 0.02 0.04
46 -13.00 -9.45 -101.22 -0.59 -0.59 10.59 0.10 0.02 0.03
47 -13.00 -9.45 -101.22 -0.59 -0.51 10.75 0.12 0.01 0.03
48 -13.00 -9.45 -101.22 -0.63 -0.47 10.67 0.16 0.01 0.04
49 -13.00 -9.45 -101.22 -0.59 -0.51 10.71 0.16 0.01 0.03
50 -13.00 -9.45 -101.22 -0.71 -0.39 10.87 0.17 0.01 0.03
51 -13.00 -9.45 -101.22 -0.63 -0.39 10.94 0.14 0.01 0.01
52 -13.00 -9.45 -101.22 -0.67 -0.39 10.98 0.12 0.02 -0.00
53 -13.00 -9.45 -101.22 -0.71 -0.43 10.90 0.13 0.03 -0.00
54 -13.00 -9.45 -101.22 -0.75 -0.43 10.87 0.10 0.04 -0.02
55 -13.00 -9.45 -101.22 -0.78 -0.27 11.02 0.05 0.05 -0.03
56 -12.91 -10.18 -100.92 -0.82 -0.35 10.83 0.06 0.05 -0.02
57 -12.91 -10.18 -100.92 -0.86 -0.47 10.71 0.10 0.06 -0.01
58 -12.91 -10.18 -100.92 -0.82 -0.39 10.36 0.12 0.06 0.00
59 -12.91 -10.18 -100.92 -0.78 -0.31 10.51 0.11 0.04 0.00
60 -12.91 -10.18 -100.92 -0.78 -0.39 10.59 0.05 0.02 -0.01
61 -12.91 -10.18 -100.92 -0.51 -0.31 10.55 0.04 -0.01 -0.02
62 -12.91 -10.18 -100.92 -0.67 -0.31 11.22 0.07 -0.02 -0.02
63 -12.82 -10.36 -100.61 -0.71 -0.31 10.98 0.09 -0.01 -0.04
64 -12.82 -10.36 -100.61 -0.75 -0.43 11.10 0.09 0.01 -0.05
65 -12.82 -10.36 -100.61 -0.78 -0.55 10.71 0.08 0.01 -0.05
66 -12.82 -10.36 -100.61 -1.10 -0.55 10.71 0.09 0.03 -0.03
67 -12.82 -10.36 -100.61 -1.14 -0.75 10.67 0.08 0.04 -0.01
68 -12.82 -10.36 -100.61 -0.86 -0.71 10.32 0.06 0.04 -0.00
69 -13.09 -10.27 -100.61 -0.94 -0.55 10.24 0.02 0.01 -0.00
70 -13.09 -10.27 -100.61 -0.82 -0.24 10.75 -0.03 -0.04 -0.01
71 -13.09 -10.27 -100.61 -0.86 -0.27 10.83 0.01 -0.09 -0.01
72 -13.09 -10.27 -100.61 -0.82 -0.31 11.34 0.06 -0.10 -0.03
73 -13.09 -10.27 -100.61 -0.90 -0.51 11.18 0.08 -0.08 -0.06
74 -13.09 -10.27 -100.61 -0.86 -0.59 10.94 0.08 -0.03 -0.07
75 0.00 0.00 0.00 -0.98 -0.63 10.55 0.09 0.00 -0.06
76 -13.36 -11.00 -100.51 -1.02 -0.78 10.71 0.10 0.03 -0.03
77 -13.36 -11.00 -100.51 -0.94 -0.75 10.59 0.09 0.05 -0.04
78 -13.36 -11.00 -100.51 -0.94 -0.55 10.87 0.08 0.05 -0.04
79 -13.36 -11.00 -100.51 -0.90 -0.47 10.90 0.08 0.05 -0.06
80 -13.36 -11.00 -100.51 -1.02 -0.24 10.98 0.14 0.07 -0.09
81 -13.36 -11.00 -100.51 -1.18 -0.31 11.18 0.20 0.11 -0.11
82 -13.09 -11.09 -100.31 -1.06 -0.16 10.75 0.20 0.11 -0.19
83 -13.09 -11.09 -100.31 -1.14 -0.12 10.83 0.14 0.14 -0.17
84 -13.09 -11.09 -100.31 -1.41 -0.12 10.75 0.06 0.17 -0.21
85 -13.09 -11.09 -100.31 -0.98 -0.51 10.63 0.05 0.19 -0.18
86 -13.09 -11.09 -100.31 -1.18 -0.55 10.20 0.09 0.16 -0.15
87 -13.09 -11.09 -100.31 -1.02 -0.63 10.16 0.03 0.11 -0.15
88 -13.27 -11.55 -100.31 -0.90 -0.51 10.40 -0.15 0.08 -0.14
89 -13.27 -11.55 -100.31 -0.78 -0.20 10.55 -0.31 0.05 -0.18
90 -13.27 -11.55 -100.31 -0.75 0.04 11.26 -0.40 0.03 -0.21
91 -13.27 -11.55 -100.31 -0.75 0.08 11.18 -0.38 0.05 -0.24
92 -13.27 -11.55 -100.31 -0.86 -0.16 10.98 -0.29 0.08 -0.26
93 -13.27 -11.55 -100.31 -1.06 -0.27 10.59 -0.10 0.12 -0.27
94 -13.27 -11.55 -100.31 -1.14 -0.39 10.36 0.10 0.16 -0.28
95 -13.27 -11.18 -100.20 -1.10 -0.43 10.28 0.11 0.18 -0.30
96 -13.27 -11.18 -100.20 -1.14 -0.16 10.43 0.05 0.18 -0.28
97 -13.27 -11.18 -100.20 -1.14 -0.12 10.51 -0.02 0.13 -0.26
98 -13.27 -11.18 -100.20 -1.06 -0.20 10.59 -0.08 0.07 -0.25
99 -13.27 -11.18 -100.20 -0.90 -0.35 10.47 -0.06 0.06 -0.25
100 -13.27 -11.18 -100.20 -1.06 -0.20 10.67 0.01 0.07 -0.25
101 -12.91 -11.55 -100.31 -0.98 -0.20 10.83 0.05 0.08 -0.27
102 -12.91 -11.55 -100.31 -1.06 -0.16 10.87 0.06 0.08 -0.26
103 -12.91 -11.55 -100.31 -0.86 -0.04 10.55 0.11 0.11 -0.26
104 -12.91 -11.55 -100.31 -1.10 0.04 10.43 0.21 0.14 -0.27
105 -12.91 -11.55 -100.31 -1.33 0.12 10.59 0.45 0.15 -0.24
106 -12.91 -11.55 -100.31 -1.29 0.12 10.28 0.69 0.15 -0.20
107 -12.91 -11.55 -100.31 -1.33 0.04 10.40 0.79 0.10 -0.23
108 -12.55 -13.45 -100.10 -1.49 0.16 11.06 0.57 0.03 -0.28
109 -12.55 -13.45 -100.10 -1.49 0.27 11.45 0.21 -0.01 -0.39
110 -12.55 -13.45 -100.10 -1.57 0.08 11.14 0.01 -0.01 -0.47
111 -12.55 -13.45 -100.10 -1.57 -0.04 10.71 -0.04 0.04 -0.48
112 -12.55 -13.45 -100.10 -1.29 -0.04 10.36 -0.10 0.06 -0.48
113 -12.55 -13.45 -100.10 -1.26 -0.24 10.08 -0.15 0.04 -0.47
114 -12.27 -13.82 -100.31 -1.33 -0.08 10.40 -0.28 -0.01 -0.49
115 -12.27 -13.82 -100.31 -1.22 0.27 10.55 -0.61 -0.09 -0.54
116 -12.27 -13.82 -100.31 -1.06 0.59 11.26 -0.86 -0.18 -0.59
117 -12.27 -13.82 -100.31 -0.98 0.82 11.26 -0.85 -0.17 -0.62
118 -12.27 -13.82 -100.31 -0.90 0.63 11.65 -0.63 -0.14 -0.60
119 -12.27 -13.82 -100.31 -0.78 0.55 11.26 -0.35 -0.11 -0.58
120 -12.45 -12.73 -101.12 -0.75 0.51 11.30 -0.13 -0.08 -0.58
121 -12.45 -12.73 -101.12 -0.59 0.27 11.45 0.01 -0.07 -0.59
122 -12.45 -12.73 -101.12 -0.43 0.16 11.61 0.07 -0.07 -0.60
123 -12.45 -12.73 -101.12 -0.47 -0.08 11.02 0.17 -0.07 -0.57
124 -12.45 -12.73 -101.12 -0.39 -0.16 11.38 0.14 -0.08 -0.55
125 -12.45 -12.73 -101.12 -0.27 -0.27 10.75 -0.06 -0.10 -0.55
126 -12.45 -12.73 -101.12 -0.31 -0.20 11.26 -0.27 -0.09 -0.58
127 -12.45 -12.73 -101.12 -0.12 -0.35 10.83 -0.26 -0.14 -0.52
128 -12.45 -12.73 -101.12 0.00 -0.08 10.75 -0.14 -0.14 -0.49
129 -12.45 -12.73 -101.12 -0.20 -0.16 11.61 -0.25 -0.11 -0.54
130 -12.45 -12.73 -101.12 -0.31 0.04 11.69 -0.20 -0.10 -0.55
131 -12.45 -12.73 -101.12 -0.43 -0.20 11.53 -0.16 -0.03 -0.58
132 -12.45 -12.73 -101.12 -0.51 -0.51 11.02 -0.04 0.09 -0.60
133 -11.55 -13.55 -101.84 -0.43 -0.67 10.47 0.15 0.15 -0.52
134 -11.55 -13.55 -101.84 -0.51 -1.14 9.92 0.15 0.15 -0.44
135 -11.55 -13.55 -101.84 -0.55 -1.14 9.65 0.20 0.12 -0.44
136 -11.55 -13.55 -101.84 -0.55 -0.55 9.92 0.04 0.07 -0.41
137 -11.55 -13.55 -101.84 -0.82 -0.51 10.51 -0.17 -0.03 -0.39
138 -11.55 -13.55 -101.84 -0.71 -0.24 10.40 -0.35 -0.08 -0.39
139 -11.18 -13.55 -102.24 -0.98 -0.20 10.24 -0.39 -0.08 -0.39
140 -11.18 -13.55 -102.24 -1.18 -0.71 10.40 -0.30 -0.08 -0.37
141 -11.18 -13.55 -102.24 -1.29 -1.02 9.81 -0.16 -0.07 -0.33
142 -11.18 -13.55 -102.24 -1.29 -0.90 9.89 -0.15 -0.05 -0.34
143 -11.18 -13.55 -102.24 -1.29 -0.75 10.04 -0.21 -0.05 -0.33
144 -11.18 -13.55 -102.24 -1.45 -0.35 10.28 -0.29 -0.09 -0.28
145 -10.73 -12.55 -102.35 -1.14 0.20 10.12 -0.32 -0.14 -0.27
146 -10.73 -12.55 -102.35 -1.29 -0.04 10.36 -0.25 -0.18 -0.26
147 -10.73 -12.55 -102.35 -1.10 -0.12 9.89 -0.12 -0.20 -0.30
148 -10.73 -12.55 -102.35 -0.90 -0.16 10.04 -0.01 -0.21 -0.36
149 -10.73 -12.55 -102.35 -0.75 -0.12 10.51 -0.05 -0.23 -0.41
150 -10.73 -12.55 -102.35 -0.47 -0.35 10.55 -0.07 -0.25 -0.44
151 -11.18 -12.64 -102.35 -0.20 -0.51 10.28 0.05 -0.23 -0.44
152 -11.18 -12.64 -102.35 -0.08 -0.59 10.75 0.23 -0.23 -0.38
153 -11.18 -12.64 -102.35 0.20 -0.67 10.04 0.38 -0.25 -0.32
154 -11.18 -12.64 -102.35 0.51 -0.82 10.08 0.26 -0.30 -0.36
155 -11.18 -12.64 -102.35 0.67 -0.31 10.36 -0.19 -0.37 -0.49
156 -11.18 -12.64 -102.35 1.06 -0.51 10.36 -0.41 -0.41 -0.56
157 -11.18 -12.64 -102.35 1.18 -0.98 10.32 -0.41 -0.41 -0.56
158 -11.45 -12.09 -101.43 1.29 -0.98 10.40 -0.24 -0.40 -0.52
159 -11.45 -12.09 -101.43 1.57 -1.69 10.40 -0.13 -0.36 -0.46
160 -11.45 -12.09 -101.43 1.57 -1.65 9.81 -0.11 -0.35 -0.40
161 -11.45 -12.09 -101.43 1.61 -1.02 10.20 -0.29 -0.37 -0.38
162 -11.45 -12.09 -101.43 1.92 -0.86 10.98 -0.52 -0.37 -0.39
163 -11.45 -12.09 -101.43 1.92 -0.82 11.30 -0.58 -0.32 -0.41
164 -12.36 -11.36 -101.53 2.12 -0.59 10.55 -0.42 -0.24 -0.42
165 -12.36 -11.36 -101.53 2.04 -1.06 10.36 -0.15 -0.21 -0.35
166 -12.36 -11.36 -101.53 2.16 -1.06 10.08 0.12 -0.22 -0.24
167 -12.36 -11.36 -101.53 2.08 -0.82 10.47 0.24 -0.25 -0.16
168 -12.36 -11.36 -101.53 2.16 -0.71 11.45 0.20 -0.28 -0.15
169 -12.36 -11.36 -101.53 2.20 -0.75 12.08 0.16 -0.25 -0.17
170 -12.91 -11.27 -101.12 2.16 -1.02 12.20 0.20 -0.17 -0.17
171 -12.91 -11.27 -101.12 1.88 -0.39 11.85 0.20 -0.17 -0.11
172 -12.91 -11.27 -101.12 1.80 -0.24 11.41 0.27 -0.06 -0.11
173 -12.91 -11.27 -101.12 1.73 -0.47 10.90 0.41 0.05 -0.13
174 -12.91 -11.27 -101.12 1.61 -0.78 10.51 0.56 0.10 -0.12
175 -12.91 -11.27 -101.12 1.61 -0.35 11.30 0.52 0.06 -0.14
176 -12.91 -11.27 -101.12 1.61 -0.82 11.22 0.31 0.02 -0.16
177 -13.27 -12.27 -100.71 1.65 -0.67 10.75 0.14 0.03 -0.14
178 -13.27 -12.27 -100.71 1.37 -0.20 11.22 0.01 0.06 -0.11
179 -13.27 -12.27 -100.71 1.49 -0.51 11.45 -0.09 0.07 -0.10
180 -13.27 -12.27 -100.71 1.49 -1.14 11.30 -0.04 0.10 -0.10
181 -13.27 -12.27 -100.71 1.45 -0.86 11.10 -0.02 0.14 -0.12
182 -13.27 -12.27 -100.71 1.29 -0.75 11.49 -0.19 0.15 -0.15
183 -12.64 -12.09 -100.82 1.22 -0.82 10.90 -0.17 0.19 -0.13
184 -12.64 -12.09 -100.82 1.02 -0.82 10.75 -0.03 0.24 -0.07
185 -12.64 -12.09 -100.82 1.02 -0.39 10.63 0.07 0.26 -0.02
186 -12.64 -12.09 -100.82 0.98 -0.43 10.32 0.26 0.25 0.04
187 -12.64 -12.09 -100.82 0.98 -0.59 10.12 0.39 0.20 0.07
188 -12.64 -12.09 -100.82 0.71 -0.55 10.43 0.22 0.13 0.02
189 -12.64 -12.09 -100.82 0.75 -0.35 10.43 -0.01 0.02 -0.03
190 -12.27 -12.55 -101.12 0.82 -0.24 10.83 -0.01 -0.05 -0.11
191 -12.27 -12.55 -101.12 0.67 -0.63 11.02 -0.22 -0.05 -0.15
192 -12.27 -12.55 -101.12 0.63 -0.35 10.55 -0.25 -0.05 -0.14
193 -12.27 -12.55 -101.12 0.55 -0.31 10.36 -0.13 0.00 -0.11
194 -12.27 -12.55 -101.12 0.51 -0.47 10.36 0.04 -0.00 -0.07
195 -12.27 -12.55 -101.12 0.90 -0.51 10.20 0.17 -0.04 -0.06
196 -12.55 -13.00 -100.92 0.75 -0.20 10.00 0.19 -0.11 -0.03
197 -12.55 -13.00 -100.92 0.71 -0.04 10.67 0.19 -0.19 0.00
198 -12.55 -13.00 -100.92 0.75 -0.16 10.94 0.14 -0.25 -0.00
199 -12.55 -13.00 -100.92 0.94 -0.63 11.10 0.06 -0.26 -0.01
200 -12.55 -13.00 -100.92 0.94 -0.63 11.10 0.03 -0.21 -0.02
201 -12.55 -13.00 -100.92 0.82 -0.27 11.26 -0.02 -0.13 -0.03
202 -13.00 -13.27 -100.82 1.14 -0.75 10.79 -0.03 -0.09 -0.04
203 -13.00 -13.27 -100.82 0.75 -0.35 10.55 0.04 -0.03 -0.03
204 -13.00 -13.27 -100.82 0.82 -0.51 10.40 0.02 -0.02 -0.08
205 -13.00 -13.27 -100.82 0.86 -0.35 10.32 -0.04 -0.05 -0.11
206 -13.00 -13.27 -100.82 1.02 -0.47 10.36 -0.10 -0.06 -0.15
207 -13.00 -13.27 -100.82 1.06 -0.24 10.71 -0.20 -0.10 -0.18
208 -13.00 -12.82 -100.82 1.02 -0.55 10.83 -0.20 -0.12 -0.17
209 -13.36 -12.82 -101.12 0.98 -0.63 11.18 -0.09 -0.09 -0.12
210 -13.36 -12.82 -101.12 1.02 -0.31 10.94 -0.09 -0.06 -0.11
211 -13.36 -12.82 -101.12 1.22 -0.43 10.87 -0.17 -0.06 -0.12
212 -13.36 -12.82 -101.12 1.29 -0.71 10.63 -0.24 -0.05 -0.13
213 -13.36 -12.82 -101.12 1.29 -0.71 10.63 -0.39 -0.06 -0.17
214 -13.36 -12.82 -101.12 1.26 -0.82 10.79 -0.51 -0.08 -0.19
215 -13.45 -12.18 -100.82 1.22 -0.75 10.90 -0.47 -0.05 -0.19
216 -13.45 -12.18 -100.82 1.29 -0.90 10.67 -0.33 0.00 -0.16
217 -13.45 -12.18 -100.82 1.14 -0.86 10.71 -0.17 0.04 -0.12
218 -13.45 -12.18 -100.82 1.10 -0.82 10.43 -0.03 0.06 -0.08
219 -13.45 -12.18 -100.82 1.18 -0.78 10.83 0.07 0.08 -0.05
220 -13.45 -12.18 -100.82 1.10 -0.67 10.51 0.07 0.08 -0.02
221 -13.36 -12.18 -101.12 1.14 -0.55 10.43 0.13 0.09 -0.02
222 -13.36 -12.18 -101.12 1.02 -0.55 10.40 0.17 0.09 -0.02
223 -13.36 -12.18 -101.12 0.86 -0.78 10.67 0.15 0.06 -0.02
224 -13.36 -12.18 -101.12 0.94 -0.82 11.06 0.05 0.02 -0.04
225 -13.36 -12.18 -101.12 0.86 -0.67 10.94 -0.11 0.02 -0.06
226 -13.36 -12.18 -101.12 0.82 -0.31 10.90 -0.22 0.03 -0.07
227 -13.36 -12.18 -101.12 0.82 -0.47 11.14 -0.26 0.04 -0.07
228 -13.00 -11.91 -100.92 1.06 -0.63 10.90 -0.27 0.07 -0.09
229 -13.00 -11.91 -100.92 1.14 -0.59 10.71 -0.27 0.06 -0.09
230 -13.00 -11.91 -100.92 1.45 -0.78 10.75 -0.22 0.06 -0.06
231 -13.00 -11.91 -100.92 1.22 -0.71 10.75 -0.04 0.08 -0.04
232 -13.00 -11.91 -100.92 1.45 -0.94 10.75 0.11 0.07 -0.01
233 -13.00 -11.91 -100.92 1.33 -0.98 10.51 0.11 0.08 -0.01
234 -13.00 -12.18 -101.22 1.33 -0.94 10.75 0.10 0.09 -0.02
235 -13.00 -12.18 -101.22 1.33 -0.90 10.71 0.09 0.09 -0.01
236 -13.00 -12.18 -101.22 1.29 -0.98 10.40 0.08 0.08 0.00
237 -13.00 -12.18 -101.22 1.29 -0.94 10.32 0.02 0.07 -0.01
238 -13.00 -12.18 -101.22 1.33 -0.90 10.36 -0.00 0.07 -0.02
239 -13.00 -12.18 -101.22 1.22 -0.82 10.75 0.04 0.05 -0.01
240 -13.09 -12.36 -101.22 1.18 -0.98 10.67 0.02 0.05 -0.01
241 -13.09 -12.36 -101.22 1.06 -0.90 11.18 0.03 0.02 -0.01
242 -13.09 -12.36 -101.22 1.22 -1.14 11.22 0.03 0.01 0.00
243 -13.09 -12.36 -101.22 1.18 -1.14 11.10 0.03 0.04 0.02
244 -13.09 -12.36 -101.22 1.06 -0.94 11.18 0.02 0.07 0.04
245 -13.09 -12.36 -101.22 1.02 -0.82 11.02 0.03 0.11 0.05
246 -13.09 -12.36 -101.22 1.10 -0.94 10.51 0.05 0.14 0.07
247 -13.00 -12.73 -101.53 0.82 -0.78 10.55 0.04 0.15 0.06
248 -13.00 -12.73 -101.53 0.82 -0.63 10.75 0.03 0.14 0.06
249 -13.00 -12.73 -101.53 0.78 -0.78 10.28 0.04 0.11 0.08
250 -13.00 -12.73 -101.53 0.82 -0.86 10.67 -0.01 0.08 0.07
251 -13.00 -12.73 -101.53 0.71 -0.78 10.75 -0.03 0.06 0.07
252 -13.00 -12.73 -101.53 0.75 -0.71 11.18 -0.00 0.09 0.07
253 0.00 0.00 0.00 0.75 -0.75 10.94 0.02 0.11 0.08
254 -12.55 -12.73 -101.12 0.71 -0.75 10.55 0.02 0.11 0.08
255 -12.55 -12.73 -101.12 0.59 -0.59 10.71 0.00 0.11 0.11
256 -12.55 -12.73 -101.12 0.67 -0.71 10.55 -0.02 0.09 0.11
257 -12.55 -12.73 -101.12 0.67 -0.63 10.63 -0.02 0.09 0.10
258 -12.55 -12.73 -101.12 0.71 -0.55 10.47 -0.05 0.08 0.09
259 -12.55 -12.73 -101.12 0.59 -0.31 10.47 -0.11 0.07 0.08
260 -12.55 -12.27 -101.33 0.67 -0.31 10.87 -0.09 0.05 0.09
261 -12.55 -12.27 -101.33 0.59 -0.31 10.83 -0.04 0.05 0.09
262 -12.55 -12.27 -101.33 0.82 -0.20 10.67 0.02 0.07 0.10
263 -12.55 -12.27 -101.33 0.78 -0.35 10.59 0.07 0.06 0.10
264 -12.55 -12.27 -101.33 0.75 -0.31 10.47 0.08 0.03 0.10
265 -12.55 -12.27 -101.33 0.59 -0.39 10.51 0.09 0.00 0.09
266 -12.55 -12.27 -101.33 0.55 -0.39 10.90 0.07 -0.00 0.06
267 -12.64 -12.55 -101.12 0.51 -0.39 10.71 0.02 -0.01 0.05
268 -12.64 -12.55 -101.12 0.59 -0.24 10.71 -0.02 -0.02 0.03
269 -12.64 -12.55 -101.12 0.71 -0.47 10.71 -0.02 -0.02 0.01
270 -12.64 -12.55 -101.12 0.63 -0.51 10.67 -0.04 -0.01 0.01
271 -12.64 -12.55 -101.12 0.75 -0.59 10.59 -0.04 -0.01 0.00
272 -12.64 -12.55 -101.12 0.67 -0.67 10.43 -0.04 -0.00 -0.01
273 -12.64 -12.45 -101.33 0.82 -0.63 10.47 -0.06 -0.00 -0.01
274 -12.64 -12.45 -101.33 0.75 -0.75 10.47 -0.06 -0.01 -0.02
275 -12.64 -12.45 -101.33 0.82 -0.71 10.43 -0.02 -0.01 -0.00
276 -12.64 -12.45 -101.33 0.82 -0.78 10.47 0.05 -0.02 0.02
277 -12.64 -12.45 -101.33 0.75 -0.75 10.67 0.09 -0.02 0.03
278 -12.64 -12.45 -101.33 0.82 -0.63 10.59 0.10 -0.03 0.04
279 -12.82 -12.55 -101.22 0.82 -0.67 10.63 0.09 -0.05 0.03
280 -12.82 -12.55 -101.22 0.82 -0.63 10.55 0.08 -0.06 0.03
281 -12.82 -12.55 -101.22 0.82 -0.71 10.51 0.06 -0.06 0.01
282 -12.82 -12.55 -101.22 0.86 -0.82 10.43 0.05 -0.07 0.02
283 -12.82 -12.55 -101.22 0.98 -0.75 10.47 0.07 -0.08 0.02
284 -12.82 -12.55 -101.22 0.90 -0.86 10.63 0.10 -0.08 0.02
285 -12.82 -12.55 -101.22 1.06 -0.86 10.67 0.12 -0.09 0.05
286 -13.18 -13.18 -100.92 1.06 -0.86 10.71 0.11 -0.09 0.07
287 -13.18 -13.18 -100.92 1.10 -0.90 10.83 0.09 -0.08 0.08
288 -13.18 -13.18 -100.92 1.10 -0.94 10.71 0.07 -0.07 0.10
289 -13.18 -13.18 -100.92 0.98 -0.82 10.71 0.07 -0.07 0.12
290 -13.18 -13.18 -100.92 0.98 -0.59 10.71 0.06 -0.07 0.12
291 -13.18 -13.18 -100.92 0.98 -0.51 10.83 0.09 -0.07 0.14
292 -13.45 -12.91 -100.82 1.06 -0.47 10.83 0.09 -0.07 0.13
293 -13.45 -12.91 -100.82 1.02 -0.47 10.63 0.07 -0.08 0.14
294 -13.45 -12.91 -100.82 1.06 -0.39 10.79 0.07 -0.09 0.15
295 -13.45 -12.91 -100.82 1.14 -0.51 10.67 0.06 -0.09 0.16
296 -13.45 -12.91 -100.82 0.98 -0.51 10.83 0.04 -0.07 0.14
297 -13.45 -12.91 -100.82 1.10 -0.51 10.87 0.06 -0.04 0.13
298 -13.45 -12.91 -100.82 1.14 -0.35 10.79 0.06 -0.03 0.14
299 -13.73 -13.27 -100.41 0.98 -0.47 10.63 0.05 -0.03 0.15
300 -13.73 -13.27 -100.41 1.02 -0.39 10.67 0.03 -0.04 0.15
301 -13.73 -13.27 -100.41 1.10 -0.27 10.67 0.01 -0.06 0.14
302 -13.73 -13.27 -100.41 1.14 -0.35 10.67 0.01 -0.07 0.15
303 -13.73 -13.27 -100.41 1.06 -0.47 10.90 0.04 -0.08 0.16
304 -13.73 -13.27 -100.41 1.10 -0.27 10.79 0.06 -0.07 0.17
305 -14.09 -13.18 -100.31 1.06 -0.20 10.87 0.06 -0.07 0.17
306 -14.09 -13.18 -100.31 1.10 -0.20 10.98 0.02 -0.07 0.16
307 -14.09 -13.18 -100.31 1.14 -0.24 11.10 0.02 -0.07 0.16
308 -14.09 -13.18 -100.31 1.10 -0.39 10.94 0.01 -0.07 0.16
309 -14.09 -13.18 -100.31 1.06 -0.43 10.90 -0.01 -0.05 0.16
310 -14.09 -13.18 -100.31 1.06 -0.39 10.94 -0.05 -0.04 0.16
311 -14.09 -13.18 -100.31 1.02 -0.27 10.90 -0.08 -0.02 0.15
312 -14.45 -13.09 -100.61 1.02 -0.12 10.83 -0.06 0.00 0.16
313 -14.45 -13.09 -100.61 1.02 -0.20 10.67 -0.08 0.02 0.14
314 -14.45 -13.09 -100.61 0.90 -0.16 10.75 -0.07 0.03 0.13
315 -14.45 -13.09 -100.61 0.94 -0.12 10.75 -0.05 0.03 0.13
316 -14.45 -13.09 -100.61 0.98 -0.16 10.79 -0.04 0.04 0.12
317 -14.45 -13.09 -100.61 0.86 -0.35 10.75 -0.03 0.06 0.12
318 -14.36 -13.27 -100.51 0.98 -0.35 10.75 -0.03 0.07 0.11
319 -14.36 -13.27 -100.51 0.86 -0.27 10.75 -0.04 0.07 0.11
320 -14.36 -13.27 -100.51 0.94 -0.16 10.55 -0.02 0.09 0.11
321 -14.36 -13.27 -100.51 0.94 -0.43 10.36 -0.00 0.09 0.10
322 -14.36 -13.27 -100.51 0.98 -0.35 10.16 -0.02 0.08 0.10
323 -14.36 -13.27 -100.51 0.82 -0.39 10.04 -0.00 0.06 0.10
324 -14.36 -13.18 -100.61 0.75 -0.55 10.20 0.00 0.04 0.10
325 -14.36 -13.18 -100.61 0.78 -0.59 10.00 0.00 0.04 0.11
326 -14.36 -13.18 -100.61 0.71 -0.55 10.32 -0.01 0.02 0.11
327 -14.36 -13.18 -100.61 0.82 -0.63 10.16 -0.01 0.01 0.09
328 -14.36 -13.18 -100.61 0.98 -0.59 10.04 -0.02 0.00 0.09
329 -14.36 -13.18 -100.61 0.75 -0.47 10.32 -0.03 0.00 0.10
330 -14.36 -13.18 -100.61 0.75 -0.51 10.40 -0.05 -0.03 0.09
331 -14.55 -13.00 -100.41 0.94 -0.35 10.67 -0.06 -0.04 0.09
332 -14.55 -13.00 -100.41 0.94 -0.39 10.63 -0.04 -0.05 0.08
333 -14.55 -13.00 -100.41 0.82 -0.27 10.55 -0.03 -0.05 0.08
334 -14.55 -13.00 -100.41 0.90 -0.24 10.75 -0.01 -0.03 0.08
335 -14.55 -13.00 -100.41 0.94 -0.39 11.06 0.04 -0.02 0.08
336 -14.55 -13.00 -100.41 1.02 -0.35 10.79 0.05 -0.01 0.07
337 -14.55 -13.18 -100.20 1.02 -0.39 10.90 0.03 -0.01 0.06
338 -14.55 -13.18 -100.20 0.94 -0.43 10.90 0.03 -0.00 0.06
339 -14.55 -13.18 -100.20 0.98 -0.39 10.94 0.01 0.00 0.05
340 -14.55 -13.18 -100.20 0.98 -0.31 10.90 -0.02 0.02 0.04
341 -14.55 -13.18 -100.20 0.98 -0.35 10.79 -0.02 0.04 0.04
342 -14.55 -13.18 -100.20 1.02 -0.39 10.79 -0.04 0.04 0.04
343 -14.55 -13.18 -100.20 1.10 -0.31 10.75 -0.06 0.05 0.04
344 -14.55 -13.09 -100.41 1.02 -0.43 10.67 -0.06 0.05 0.04
345 -14.55 -13.09 -100.41 1.18 -0.71 10.51 -0.05 0.06 0.02
346 -14.55 -13.09 -100.41 1.14 -0.59 10.59 -0.03 0.05 0.03
347 -14.55 -13.09 -100.41 1.02 -0.47 10.67 -0.03 0.05 0.02
348 -14.55 -13.09 -100.41 1.14 -0.47 10.71 -0.03 0.04 0.04
349 -14.55 -13.09 -100.41 1.10 -0.47 10.79 -0.01 0.04 0.04
350 -14.55 -13.27 -100.61 1.10 -0.43 10.71 -0.02 0.04 0.05
351 -14.55 -13.27 -100.61 1.06 -0.35 10.67 -0.03 0.05 0.04
352 -14.55 -13.27 -100.61 1.10 -0.27 10.59 -0.02 0.05 0.03
353 -14.55 -13.27 -100.61 1.10 -0.35 10.63 -0.00 0.06 0.05
354 -14.55 -13.27 -100.61 0.98 -0.31 10.67 -0.02 0.05 0.04
355 -14.55 -13.27 -100.61 1.02 -0.31 10.67 -0.03 0.04 0.04
356 -14.55 -13.27 -100.61 1.02 -0.31 10.83 -0.01 0.04 0.04
357 -14.55 -13.09 -100.31 1.06 -0.39 10.79 0.00 0.04 0.03
358 -14.55 -13.09 -100.31 0.94 -0.59 10.67 -0.00 0.04 0.03
359 -14.55 -13.09 -100.31 0.94 -0.51 10.71 0.01 0.04 0.03
360 -14.55 -13.09 -100.31 0.98 -0.55 10.71 0.00 0.04 0.04
361 -14.55 -13.09 -100.31 0.94 -0.51 10.67 0.00 0.04 0.04
362 -14.55 -13.09 -100.31 0.90 -0.35 10.63 -0.01 0.05 0.06
363 -14.27 -13.27 -100.20 0.94 -0.31 10.59 -0.01 0.06 0.05
364 -14.27 -13.27 -100.20 0.94 -0.27 10.51 0.00 0.06 0.04
365 -14.27 -13.27 -100.20 1.02 -0.31 10.40 0.01 0.07 0.03
366 -14.27 -13.27 -100.20 0.94 -0.27 10.40 -0.01 0.06 0.03
367 -14.27 -13.27 -100.20 0.94 -0.39 10.36 -0.03 0.04 0.02
368 -14.27 -13.27 -100.20 0.90 -0.27 10.51 -0.04 0.02 0.03
369 -14.27 -13.27 -100.20 0.94 -0.24 10.55 -0.05 0.01 0.03
370 -14.36 -13.27 -100.20 1.02 -0.39 10.59 -0.03 0.01 0.02
371 -14.36 -13.27 -100.20 1.06 -0.35 10.67 -0.02 0.00 0.00
372 -14.36 -13.27 -100.20 1.06 -0.43 10.71 -0.02 0.01 0.01
373 -14.36 -13.27 -100.20 1.10 -0.43 10.79 -0.04 0.02 0.01
374 -14.36 -13.27 -100.20 1.06 -0.39 10.79 -0.04 0.02 0.01
375 -14.36 -13.27 -100.20 1.06 -0.55 10.63 -0.00 0.03 0.01
376 -14.18 -13.09 -100.41 1.14 -0.55 10.67 0.04 0.03 0.01
377 -14.18 -13.09 -100.41 1.14 -0.67 10.75 0.04 0.03 0.01
378 -14.18 -13.09 -100.41 1.18 -0.63 10.75 0.04 0.02 0.01
379 -14.18 -13.09 -100.41 1.14 -0.71 10.67 0.02 0.03 0.00
380 -14.18 -13.09 -100.41 1.14 -0.55 10.59 0.01 0.03 0.03
381 -14.18 -13.09 -100.41 1.18 -0.55 10.71 -0.03 0.03 0.04
382 -14.18 -13.09 -100.41 1.22 -0.47 10.75 -0.05 0.03 0.04
383 -14.27 -13.27 -100.41 1.14 -0.31 10.63 -0.06 0.03 0.04
384 -14.27 -13.27 -100.41 1.10 -0.31 10.75 -0.06 0.03 0.03
385 -14.27 -13.27 -100.41 1.06 -0.47 10.79 -0.03 0.03 0.04
386 -14.27 -13.27 -100.41 1.10 -0.55 10.83 -0.01 0.04 0.04
387 -14.27 -13.27 -100.41 1.06 -0.59 10.83 -0.01 0.05 0.05
388 -14.27 -13.27 -100.41 1.02 -0.59 10.67 -0.01 0.05 0.06
389 -14.18 -13.09 -100.51 1.02 -0.51 10.67 -0.01 0.07 0.06
390 -14.18 -13.09 -100.51 1.10 -0.47 10.63 -0.01 0.07 0.05
391 -14.18 -13.09 -100.51 1.02 -0.51 10.63 0.01 0.06 0.07
392 -14.18 -13.09 -100.51 1.02 -0.43 10.63 0.02 0.06 0.07
393 -14.18 -13.09 -100.51 0.98 -0.39 10.67 0.02 0.06 0.07
394 -14.18 -13.09 -100.51 0.90 -0.35 10.51 0.03 0.06 0.06
395 -14.18 -13.09 -100.51 0.90 -0.39 10.51 0.03 0.06 0.07
396 -14.18 -13.09 -100.31 0.98 -0.27 10.51 0.02 0.05 0.07
397 -14.18 -13.09 -100.31 0.90 -0.20 10.47 0.02 0.05 0.05
398 -14.18 -13.09 -100.31 0.82 -0.16 10.55 0.02 0.04 0.05
399 -14.18 -13.09 -100.31 0.90 -0.24 10.59 0.02 0.04 0.04
400 -14.18 -13.09 -100.31 0.82 -0.27 10.67 0.02 0.04 0.04
401 -14.18 -13.09 -100.31 0.78 -0.20 10.71 0.01 0.03 0.04
402 -14.18 -13.27 -100.41 0.82 -0.24 10.71 0.02 0.04 0.04
403 -14.18 -13.27 -100.41 0.78 -0.27 10.71 0.04 0.04 0.03
404 -14.18 -13.27 -100.41 0.86 -0.27 10.79 0.01 0.04 0.02
405 -14.18 -13.27 -100.41 0.78 -0.31 10.75 -0.01 0.04 0.02
406 -14.18 -13.27 -100.41 0.86 -0.24 10.51 -0.00 0.05 0.01
407 -14.18 -13.27 -100.41 0.75 -0.35 10.47 -0.00 0.05 0.01
408 -14.18 -13.27 -100.41 0.82 -0.39 10.43 0.03 0.06 0.01
409 -14.18 -13.36 -100.10 0.86 -0.51 10.40 0.04 0.05 0.01
410 -14.18 -13.36 -100.10 0.86 -0.35 10.47 0.04 0.04 0.01
411 -14.18 -13.36 -100.10 0.82 -0.39 10.55 0.03 0.03 0.01
412 -14.18 -13.36 -100.10 0.90 -0.35 10.51 0.01 0.01 0.01
413 -14.18 -13.36 -100.10 0.98 -0.35 10.63 0.01 0.01 0.00
414 -14.18 -13.36 -100.10 1.02 -0.24 10.67 0.00 -0.00 0.01
415 0.00 0.00 0.00 0.98 -0.35 10.79 0.02 -0.00 0.01
416 -14.27 -13.64 -100.20 1.02 -0.39 10.75 0.04 0.00 0.02
417 -14.27 -13.64 -100.20 1.06 -0.35 10.75 0.05 0.01 0.02
418 -14.27 -13.64 -100.20 1.06 -0.31 10.71 0.03 0.00 0.03
419 -14.27 -13.64 -100.20 1.06 -0.27 10.83 0.00 -0.01 0.02
420 -14.27 -13.64 -100.20 1.14 -0.27 11.02 0.00 -0.01 0.02
421 -14.27 -13.64 -100.20 1.14 -0.47 10.87 -0.01 -0.01 0.02
422 -14.36 -13.45 -99.80 1.18 -0.35 10.79 0.01 -0.00 0.02
423 -14.36 -13.45 -99.80 1.02 -0.35 10.79 -0.01 0.01 0.03
424 -14.36 -13.45 -99.80 1.06 -0.16 10.75 -0.03 0.01 0.04
425 -14.36 -13.45 -99.80 1.06 -0.27 10.67 -0.04 0.01 0.04
426 -14.36 -13.45 -99.80 1.02 -0.20 10.75 -0.02 0.02 0.04
427 -14.36 -13.45 -99.80 1.06 -0.27 10.75 -0.01 0.01 0.05
428 -14.36 -13.45 -99.80 1.10 -0.35 10.75 0.00 0.02 0.03
429 -14.36 -13.45 -100.00 1.02 -0.31 10.79 -0.00 0.02 0.04
430 -14.36 -13.45 -100.00 1.02 -0.31 10.71 0.00 0.03 0.04
431 -14.36 -13.45 -100.00 1.10 -0.31 10.63 0.03 0.04 0.05
432 -14.36 -13.45 -100.00 1.06 -0.31 10.59 0.04 0.05 0.05
433 -14.36 -13.45 -100.00 1.10 -0.39 10.63 0.03 0.04 0.05
434 -14.36 -13.45 -100.00 1.02 -0.31 10.71 0.03 0.03 0.03
435 -14.45 -14.09 -100.10 0.94 -0.35 10.67 0.03 0.03 0.03
436 -14.45 -14.09 -100.10 1.06 -0.51 10.75 0.04 0.03 0.04
437 -14.45 -14.09 -100.10 1.02 -0.35 10.79 0.03 0.03 0.03
438 -14.45 -14.09 -100.10 1.06 -0.43 10.79 0.01 0.03 0.04
439 -14.45 -14.09 -100.10 1.02 -0.43 10.79 0.01 0.04 0.04
440 -14.45 -14.09 -100.10 1.02 -0.47 10.71 0.03 0.05 0.04
441 -14.45 -14.09 -100.10 1.02 -0.35 10.67 0.03 0.06 0.04
442 -14.45 -13.73 -100.31 0.98 -0.27 10.63 0.01 0.07 0.05
443 -14.45 -13.73 -100.31 1.02 -0.12 10.63 -0.01 0.07 0.05
444 -14.45 -13.73 -100.31 0.98 -0.16 10.67 -0.01 0.07 0.04
445 -14.45 -13.73 -100.31 0.98 -0.12 10.63 0.02 0.08 0.05
446 -14.45 -13.73 -100.31 0.90 -0.08 10.63 0.05 0.08 0.05
447 -14.45 -13.73 -100.31 0.90 -0.12 10.51 0.05 0.09 0.04
448 -14.18 -13.82 -100.10 0.82 -0.16 10.47 0.03 0.08 0.04
449 -14.18 -13.82 -100.10 0.86 -0.08 10.51 0.03 0.08 0.00
450 -14.18 -13.82 -100.10 0.90 -0.20 10.51 -0.01 0.06 0.03
451 -14.18 -13.82 -100.10 0.86 -0.20 10.47 -0.03 0.05 0.02
452 -14.18 -13.82 -100.10 0.86 -0.16 10.59 -0.03 0.04 0.04
453 -14.18 -13.82 -100.10 0.82 -0.24 10.63 -0.03 0.03 0.04
454 -14.18 -13.82 -100.10 0.86 -0.24 10.51 0.01 0.03 0.03
455 -14.18 -14.00 -100.20 0.94 -0.12 10.71 0.02 0.03 0.04
456 -14.18 -14.00 -100.20 0.94 -0.20 10.67 0.01 0.02 0.03
457 -14.18 -14.00 -100.20 1.02 -0.20 10.79 0.01 0.02 0.02
458 -14.18 -14.00 -100.20 0.98 -0.20 10.75 0.01 0.03 0.02
459 -14.18 -14.00 -100.20 1.06 -0.27 10.51 0.02 0.04 0.02
460 -14.18 -14.00 -100.20 1.02 -0.35 10.51 0.04 0.05 0.02
461 -14.27 -13.73 -100.31 1.06 -0.51 10.47 0.06 0.05 0.04
462 -14.27 -13.73 -100.31 1.02 -0.47 10.51 0.03 0.04 0.03
463 -14.27 -13.73 -100.31 1.02 -0.39 10.51 -0.01 0.03 0.04
464 -14.27 -13.73 -100.31 0.90 -0.51 10.67 -0.00 0.03 0.04
465 -14.27 -13.73 -100.31 1.02 -0.51 10.59 -0.00 0.02 0.05
466 -14.27 -13.73 -100.31 0.90 -0.39 10.63 -0.01 0.01 0.06
467 -14.27 -13.73 -100.31 1.02 -0.39 10.55 -0.03 0.01 0.07
468 -13.82 -14.18 -100.00 0.86 -0.39 10.59 -0.01 0.01 0.06
469 -13.82 -14.18 -100.00 0.94 -0.35 10.59 0.02 0.01 0.07
470 -13.82 -14.18 -100.00 0.98 -0.35 10.59 0.05 0.01 0.08
471 -13.82 -14.18 -100.00 1.06 -0.20 10.67 0.07 0.00 0.09
472 -13.82 -14.18 -100.00 1.02 -0.20 10.87 0.08 -0.01 0.09
473 -13.82 -14.18 -100.00 1.10 -0.16 10.83 0.07 -0.01 0.09
474 -14.27 -14.09 -99.39 0.94 -0.16 10.79 0.06 -0.00 0.09
475 -14.27 -14.09 -99.39 1.02 -0.16 10.87 0.04 0.00 0.09
476 -14.27 -14.09 -99.39 1.06 -0.04 10.87 0.03 0.01 0.10
477 -14.27 -14.09 -99.39 1.06 0.00 10.87 0.01 0.02 0.10
478 -14.27 -14.09 -99.39 1.10 0.08 10.83 0.01 0.02 0.08
479 -14.27 -14.09 -99.39 1.10 0.04 10.79 0.01 0.03 0.08
480 -14.27 -14.09 -99.39 1.18 0.04 10.83 0.03 0.04 0.08
481 -14.27 -14.09 -99.80 1.14 -0.04 10.79 0.03 0.04 0.07
482 -14.27 -14.09 -99.80 1.14 -0.12 10.79 0.03 0.03 0.07
483 -14.27 -14.09 -99.80 1.06 -0.04 10.98 0.03 0.03 0.06
484 -14.27 -14.09 -99.80 1.02 -0.04 11.06 -0.00 0.04 0.06
485 -14.27 -14.09 -99.80 1.02 0.00 10.94 -0.00 0.05 0.06
486 -14.27 -14.09 -99.80 1.02 -0.04 10.87 0.00 0.07 0.07
487 -14.27 -14.09 -99.80 1.02 -0.04 10.87 -0.01 0.07 0.06
488 -14.27 -14.18 -100.00 1.06 0.08 10.59 -0.02 0.07 0.06
489 -14.27 -14.18 -100.00 0.94 0.08 10.59 -0.02 0.06 0.05
490 -14.27 -14.18 -100.00 1.06 -0.04 10.90 -0.02 0.06 0.05
491 -14.27 -14.18 -100.00 0.98 -0.12 10.94 0.00 0.05 0.06
492 -14.27 -14.18 -100.00 0.94 -0.27 10.94 0.01 0.05 0.07
493 -14.27 -14.18 -100.00 1.02 -0.12 10.79 -0.01 0.06 0.07
494 -14.09 -14.18 -99.90 0.82 -0.16 10.79 -0.02 0.08 0.08
495 -14.09 -14.18 -99.90 0.71 -0.08 10.51 -0.03 0.07 0.09
496 -14.09 -14.18 -99.90 0.82 -0.16 10.59 -0.05 0.07 0.09
497 -14.09 -14.18 -99.90 0.82 -0.04 10.55 -0.07 0.06 0.09
498 -14.09 -14.18 -99.90 0.67 0.08 10.51 -0.07 0.05 0.09
499 -14.09 -14.18 -99.90 0.71 0.08 10.47 -0.06 0.03 0.10
500 -14.09 -14.18 -99.90 0.59 0.04 10.47 -0.04 0.02 0.08
501 -14.18 -14.45 -99.69 0.71 0.00 10.75 0.00 0.02 0.08
502 -14.18 -14.45 -99.69 0.63 -0.08 10.71 0.03 0.02 0.08
503 -14.18 -14.45 -99.69 0.59 -0.12 10.67 0.03 0.02 0.08
504 -14.18 -14.45 -99.69 0.78 -0.08 10.87 0.02 0.03 0.08
505 -14.18 -14.45 -99.69 0.71 0.04 10.75 -0.01 0.03 0.07
506 -14.18 -14.45 -99.69 0.75 0.04 10.90 -0.03 0.03 0.06
507 -14.18 -14.45 -99.69 0.78 0.00 10.63 -0.06 0.03 0.06
508 -14.45 -14.09 -99.80 0.78 0.08 10.79 -0.06 0.03 0.04
509 -14.45 -14.09 -99.80 0.82 -0.04 10.55 -0.03 0.03 0.04
510 -14.45 -14.09 -99.80 0.90 -0.12 10.51 -0.03 0.03 0.04
511 -14.45 -14.09 -99.80 0.82 -0.04 10.67 -0.07 0.02 0.04
512 -14.45 -14.09 -99.80 0.75 0.04 10.83 -0.09 0.03 0.03
513 -14.45 -14.09 -99.80 0.75 0.12 10.83 -0.09 0.04 0.02
514 -14.18 -13.73 -100.00 0.78 0.00 10.47 -0.09 0.04 0.01
515 -14.18 -13.73 -100.00 0.86 -0.08 10.43 -0.08 0.04 0.01
516 -14.18 -13.73 -100.00 0.82 0.00 10.40 -0.07 0.04 0.01
517 -14.18 -13.73 -100.00 0.71 -0.04 10.47 -0.04 0.04 0.01
518 -14.18 -13.73 -100.00 0.78 -0.16 10.40 0.03 0.04 -0.00
519 -14.18 -13.73 -100.00 0.75 -0.27 10.08 0.07 0.04 -0.01
520 -14.18 -13.73 -100.00 0.86 -0.43 10.28 0.09 0.02 -0.01
521 -14.27 -14.27 -100.00 0.90 -0.31 10.36 0.05 0.00 -0.01
522 -14.27 -14.27 -100.00 0.90 -0.24 10.51 -0.01 -0.00 -0.00
523 -14.27 -14.27 -100.00 0.82 -0.20 10.24 -0.02 -0.02 -0.00
524 -14.27 -14.27 -100.00 0.82 -0.16 10.24 -0.01 -0.03 0.00
525 -14.27 -14.27 -100.00 0.98 -0.08 10.24 -0.00 -0.05 0.01
526 -14.27 -14.27 -100.00 0.86 0.00 10.28 0.00 -0.07 0.02
527 -14.36 -14.45 -99.69 0.90 -0.08 10.51 0.01 -0.08 0.03
528 -14.36 -14.45 -99.69 1.02 0.00 10.40 0.02 -0.08 0.03
529 -14.36 -14.45 -99.69 1.02 0.31 10.59 0.01 -0.09 0.02
530 -14.36 -14.45 -99.69 1.06 0.35 10.63 0.02 -0.10 0.01
531 -14.36 -14.45 -99.69 1.06 0.35 10.51 0.02 -0.10 -0.01
532 -14.36 -14.45 -99.69 1.06 0.31 10.87 0.03 -0.12 -0.01
533 -14.36 -14.45 -99.69 0.94 0.24 10.75 0.04 -0.13 -0.04
534 -14.64 -14.45 -99.80 0.90 0.00 10.87 0.07 -0.13 -0.04
535 -14.64 -14.45 -99.80 0.98 -0.04 10.83 0.08 -0.13 -0.04
536 -14.64 -14.45 -99.80 1.06 -0.04 11.14 0.08 -0.12 -0.05
537 -14.64 -14.45 -99.80 1.10 0.00 11.02 0.05 -0.10 -0.05
538 -14.64 -14.45 -99.80 1.10 -0.04 10.98 0.02 -0.09 -0.05
539 -14.64 -14.45 -99.80 1.22 -0.20 11.18 0.01 -0.07 -0.06
540 -14.91 -14.55 -99.49 1.29 -0.35 11.06 -0.01 -0.05 -0.07
541 -14.91 -14.55 -99.49 1.22 -0.31 11.02 -0.02 -0.02 -0.06
542 -14.91 -14.55 -99.49 1.22 -0.39 10.83 -0.01 0.00 -0.06
543 -14.91 -14.55 -99.49 1.41 -0.35 10.98 -0.01 0.01 -0.06
544 -14.91 -14.55 -99.49 1.33 -0.47 10.87 -0.01 0.02 -0.05
545 -14.91 -14.55 -99.49 1.29 -0.43 10.83 -0.00 0.02 -0.03
546 -14.91 -14.55 -99.49 1.37 -0.47 10.75 0.02 0.03 -0.02
547 -14.73 -14.45 -99.29 1.33 -0.39 10.55 0.06 0.04 -0.01
548 -14.73 -14.45 -99.29 1.37 -0.43 10.75 0.04 0.04 -0.01
549 -14.73 -14.45 -99.29 1.45 -0.47 10.90 0.05 0.03 0.00
550 -14.73 -14.45 -99.29 1.41 -0.27 10.87 0.04 0.03 0.02
551 -14.73 -14.45 -99.29 1.41 -0.24 10.75 0.02 0.04 0.03
552 -14.73 -14.45 -99.29 1.37 -0.08 10.79 -0.01 0.05 0.03
553 -14.73 -14.55 -99.59 1.49 -0.04 10.75 -0.02 0.04 0.04
554 -14.73 -14.55 -99.59 1.45 0.08 10.94 -0.01 0.03 0.04
555 -14.73 -14.55 -99.59 1.37 0.04 10.90 0.00 0.03 0.03
556 -14.73 -14.55 -99.59 1.33 -0.04 10.94 0.04 0.03 0.03
557 -14.73 -14.55 -99.59 1.33 0.08 11.02 0.06 0.05 0.04
558 -14.73 -14.55 -99.59 1.29 0.00 10.79 0.07 0.06 0.05
559 -14.73 -14.55 -99.59 1.22 0.00 10.67 0.07 0.06 0.05
560 -15.00 -14.91 -99.39 1.22 -0.08 10.63 0.07 0.07 0.06
561 -15.00 -14.91 -99.39 1.18 -0.08 10.75 0.05 0.06 0.07
562 -15.00 -14.91 -99.39 1.14 -0.04 10.67 0.03 0.06 0.08
563 -15.00 -14.91 -99.39 1.06 0.04 10.75 -0.02 0.06 0.07
564 -15.00 -14.91 -99.39 1.10 0.08 10.75 -0.04 0.06 0.07
565 -15.00 -14.91 -99.39 1.02 0.12 10.67 -0.04 0.06 0.08
566 -15.00 -14.91 -99.39 1.02 0.20 10.71 -0.03 0.06 0.07
567 -14.73 -15.00 -99.08 0.98 0.04 10.63 -0.01 0.06 0.05
568 -14.73 -15.00 -99.08 0.98 -0.08 10.59 0.01 0.05 0.05
569 -14.73 -15.00 -99.08 1.06 -0.04 10.63 -0.01 0.05 0.06
570 -14.73 -15.00 -99.08 1.10 -0.04 10.67 -0.01 0.04 0.06
571 -14.73 -15.00 -99.08 1.02 -0.04 10.55 -0.05 0.04 0.06
572 -14.73 -15.00 -99.08 1.02 -0.08 10.55 -0.05 0.04 0.06
573 -14.91 -14.82 -99.39 1.02 0.00 10.51 -0.05 0.05 0.05
574 -14.91 -14.82 -99.39 0.94 0.04 10.51 -0.04 0.04 0.07
575 -14.91 -14.82 -99.39 0.90 -0.04 10.51 -0.01 0.02 0.08
576 -14.91 -14.82 -99.39 0.90 0.04 10.67 -0.00 0.01 0.05
577 -14.91 -14.82 -99.39 0.98 -0.08 10.75 0.00 0.01 0.04
578 -14.91 -14.82 -99.39 0.98 -0.08 10.79 0.01 0.01 0.03
579 -14.91 -14.82 -99.39 0.98 -0.12 10.75 0.01 0.03 0.03
580 -14.82 -14.36 -99.49 1.10 0.00 10.75 0.02 0.05 0.03
581 -14.82 -14.36 -99.49 1.02 -0.04 10.79 0.01 0.06 0.05
582 -14.82 -14.36 -99.49 1.10 0.00 10.87 0.01 0.06 0.07
583 -14.82 -14.36 -99.49 0.98 0.04 10.83 0.01 0.07 0.07
584 -14.82 -14.36 -99.49 0.94 0.08 10.55 0.02 0.08 0.07
585 -14.82 -14.36 -99.49 0.98 0.16 10.47 0.04 0.09 0.08
586 -14.82 -14.36 -99.49 0.86 0.24 10.47 0.04 0.08 0.07
587 -14.64 -15.00 -99.08 0.86 0.35 10.40 0.04 0.06 0.06
588 -14.64 -15.00 -99.08 0.86 0.35 10.55 0.03 0.04 0.04
589 -14.64 -15.00 -99.08 1.14 0.16 10.63 0.02 0.02 0.03
590 -14.64 -15.00 -99.08 0.98 0.12 10.63 0.02 0.01 0.01
591 -14.64 -15.00 -99.08 0.90 0.08 10.63 0.00 0.01 0.02
592 -14.64 -15.00 -99.08 0.86 0.12 10.75 0.00 0.01 0.02
593 -14.64 -15.00 -99.08 0.82 0.12 10.55 -0.01 0.01 0.02
594 -15.09 -14.64 -99.39 0.71 0.00 10.40 -0.00 0.01 0.02
595 -15.09 -14.64 -99.39 1.02 0.00 10.43 -0.00 0.00 0.02
596 -15.09 -14.64 -99.39 0.94 0.08 10.55 -0.00 -0.01 0.02
597 -15.09 -14.64 -99.39 0.98 0.00 10.43 0.01 -0.02 0.01
598 -15.09 -14.64 -99.39 1.02 -0.04 10.47 0.00 -0.04 0.03
599 -15.09 -14.64 -99.39 0.94 0.08 10.55 -0.04 -0.06 0.02
600 -14.73 -15.00 -99.39 1.06 0.08 10.98 -0.04 -0.07 0.01
601 -14.73 -15.00 -99.39 1.10 0.08 11.06 -0.03 -0.06 0.00
602 -14.73 -15.00 -99.39 1.10 0.12 11.10 0.00 -0.04 0.01
603 -14.73 -15.00 -99.39 1.22 0.00 10.75 0.01 -0.03 0.01
604 -14.73 -15.00 -99.39 1.14 -0.08 10.79 0.01 -0.03 0.01
605 -14.73 -15.00 -99.39 1.10 -0.04 10.83 0.00 -0.02 0.00
606 -14.73 -15.00 -99.39 1.22 -0.04 10.79 0.00 -0.01 0.01
607 -15.00 -14.91 -98.98 1.33 -0.04 10.63 0.02 0.00 0.01
608 -15.00 -14.91 -98.98 1.22 -0.12 10.67 0.02 0.00 0.02
609 -15.00 -14.91 -98.98 1.26 -0.04 10.59 0.00 -0.01 0.03
610 -15.00 -14.91 -98.98 1.22 -0.04 10.75 0.00 -0.02 0.03
611 -15.00 -14.91 -98.98 1.14 0.00 10.79 -0.01 -0.02 0.03
612 -15.00 -14.91 -98.98 1.22 0.00 10.83 -0.03 -0.02 0.04
613 -14.91 -14.73 -99.59 1.22 0.00 10.87 -0.04 -0.01 0.04
614 -14.91 -14.73 -99.59 1.26 -0.04 10.83 -0.03 -0.01 0.04
615 -14.91 -14.73 -99.59 1.26 -0.04 10.87 -0.02 0.00 0.04
616 -14.91 -14.73 -99.59 1.22 0.04 10.87 -0.01 0.01 0.05
617 -14.91 -14.73 -99.59 1.22 0.04 10.75 -0.01 0.01 0.05
618 -14.91 -14.73 -99.59 1.14 0.08 10.67 -0.00 0.02 0.05
619 -14.91 -14.73 -99.59 1.14 0.12 10.67 -0.00 0.02 0.05
620 -15.09 -15.18 -98.88 1.06 0.24 10.59 -0.01 0.02 0.06
621 -15.09 -15.18 -98.88 1.18 0.24 10.47 -0.02 0.02 0.05
622 -15.09 -15.18 -98.88 1.10 0.24 10.59 -0.01 0.01 0.04
623 -15.09 -15.18 -98.88 1.10 0.08 10.67 -0.00 0.00 0.04
624 -15.09 -15.18 -98.88 1.14 0.08 10.59 -0.01 -0.00 0.02
625 -15.09 -15.18 -98.88 1.18 0.20 10.63 -0.01 -0.00 0.01
626 -15.09 -15.18 -98.88 1.06 0.00 10.67 -0.01 -0.00 0.02
627 -15.18 -14.91 -99.18 1.18 0.00 10.59 -0.01 0.00 0.02
628 -15.18 -14.91 -99.18 1.10 0.08 10.63 -0.01 0.00 0.03
629 -15.18 -14.91 -99.18 1.14 0.04 10.63 -0.01 0.00 0.03
630 -15.18 -14.91 -99.18 1.18 0.04 10.71 -0.00 0.00 0.03
