SampleNumber MagX MagY MagZ AccX AccY AccZ GyroX GyroY GyroZ
1 15.27 8.45 -99.69 -0.20 -0.47 10.67 1.01 2.91 -3.78
2 15.27 8.45 -99.69 -0.20 -0.47 10.71 1.01 2.91 4.30
3 15.27 8.45 -99.69 -0.27 -0.43 10.55 -1.42 -2.61 4.30
4 15.27 8.45 -99.69 -0.27 -0.47 10.67 -1.90 0.41 0.85
5 15.27 8.45 -99.69 -0.24 -0.47 10.63 -0.20 0.07 0.98
6 15.27 8.45 -99.69 -0.27 -0.43 10.63 0.02 0.34 1.57
7 15.36 8.45 -99.39 -0.27 -0.47 10.63 0.02 0.02 -0.30
8 15.36 8.45 -99.39 -0.31 -0.43 10.59 -0.13 0.06 -0.06
9 15.36 8.45 -99.39 -0.27 -0.47 10.67 -0.01 0.03 0.18
10 15.36 8.45 -99.39 -0.24 -0.43 10.67 -0.01 0.03 0.18
11 15.36 8.45 -99.39 -0.24 -0.47 10.75 -0.00 0.02 0.00
12 15.36 8.45 -99.39 -0.24 -0.47 10.59 -0.03 0.02 0.02
13 15.36 8.45 -99.39 -0.24 -0.43 10.51 -0.02 0.02 0.04
14 15.18 8.91 -99.39 -0.31 -0.47 10.63 -0.02 0.03 0.02
15 15.18 8.91 -99.39 -0.20 -0.47 10.63 -0.03 0.04 0.02
16 15.18 8.91 -99.39 -0.27 -0.43 10.55 -0.02 0.03 0.04
17 15.18 8.91 -99.39 -0.27 -0.51 10.55 -0.02 0.02 0.04
18 15.18 8.91 -99.39 -0.31 -0.39 10.51 -0.02 0.02 0.04
19 15.18 8.91 -99.39 -0.27 -0.47 10.59 -0.02 0.02 0.03
20 15.09 8.55 -99.39 -0.24 -0.43 10.63 -0.03 0.03 0.03
21 15.09 8.55 -99.39 -0.24 -0.43 10.67 -0.03 0.03 0.03
22 15.09 8.55 -99.39 -0.24 -0.39 10.67 -0.02 0.03 0.03
23 15.09 8.55 -99.39 -0.31 -0.47 10.71 -0.02 0.02 0.03
24 15.09 8.55 -99.39 -0.16 -0.43 10.71 -0.02 0.03 0.02
25 15.09 8.55 -99.39 -0.24 -0.51 10.71 -0.03 0.03 0.03
26 15.09 8.55 -99.39 -0.27 -0.43 10.67 -0.03 0.03 0.03
27 15.45 8.55 -99.49 -0.24 -0.43 10.75 -0.02 0.03 0.03
28 15.45 8.55 -99.49 -0.31 -0.47 10.59 -0.02 0.02 0.03
29 15.45 8.55 -99.49 -0.27 -0.47 10.67 -0.02 0.02 0.02
30 15.45 8.55 -99.49 -0.27 -0.47 10.51 -0.02 0.03 0.03
31 15.45 8.55 -99.49 -0.27 -0.47 10.55 -0.03 0.04 0.03
32 15.45 8.55 -99.49 -0.31 -0.39 10.71 -0.02 0.03 0.03
33 15.45 8.55 -99.49 -0.24 -0.43 10.75 -0.02 0.02 0.03
34 15.36 8.64 -99.39 -0.35 -0.39 10.63 -0.02 0.02 0.03
35 15.36 8.64 -99.39 -0.20 -0.47 10.59 -0.02 0.02 0.03
36 15.36 8.64 -99.39 -0.35 -0.47 10.59 -0.02 0.03 0.03
37 15.36 8.64 -99.39 -0.16 -0.47 10.51 -0.03 0.03 0.03
38 15.36 8.64 -99.39 -0.24 -0.39 10.67 -0.03 0.03 0.04
39 15.36 8.64 -99.39 -0.27 -0.43 10.67 -0.02 0.02 0.03
40 15.36 8.64 -99.39 -0.20 -0.39 10.71 -0.02 0.02 0.03
41 15.55 8.64 -99.49 -0.24 -0.43 10.59 -0.02 0.03 0.03
42 15.55 8.64 -99.49 -0.27 -0.47 10.59 -0.03 0.04 0.03
43 15.55 8.64 -99.49 -0.24 -0.47 10.75 -0.03 0.04 0.03
44 15.55 8.64 -99.49 -0.24 -0.43 10.63 -0.03 0.03 0.03
45 15.55 8.64 -99.49 -0.24 -0.39 10.63 -0.02 0.02 0.03
46 15.55 8.64 -99.49 -0.20 -0.47 10.59 -0.02 0.02 0.03
47 15.55 8.64 -99.49 -0.24 -0.43 10.59 -0.03 0.03 0.03
48 15.55 8.36 -99.59 -0.24 -0.43 10.59 -0.03 0.03 0.03
49 15.55 8.36 -99.59 -0.24 -0.35 10.63 -0.02 0.03 0.03
50 15.55 8.36 -99.59 -0.27 -0.43 10.59 -0.02 0.02 0.03
51 15.55 8.36 -99.59 -0.20 -0.55 10.59 -0.02 0.02 0.04
52 15.55 8.36 -99.59 -0.27 -0.43 10.71 -0.02 0.02 0.04
53 15.55 8.36 -99.59 -0.24 -0.51 10.63 -0.03 0.03 0.04
54 15.55 8.36 -99.59 -0.31 -0.35 10.79 -0.03 0.03 0.03
55 15.55 8.45 -99.69 -0.20 -0.47 10.63 -0.02 0.02 0.02
56 15.55 8.45 -99.69 -0.31 -0.43 10.63 -0.02 0.02 0.03
57 15.55 8.45 -99.69 -0.24 -0.43 10.67 -0.02 0.03 0.03
58 15.55 8.45 -99.69 -0.24 -0.47 10.63 -0.03 0.03 0.04
59 15.55 8.45 -99.69 -0.31 -0.47 10.67 -0.03 0.03 0.03
60 15.55 8.45 -99.69 -0.27 -0.47 10.67 -0.03 0.03 0.03
61 15.55 8.45 -99.69 -0.20 -0.43 10.67 -0.02 0.02 0.03
62 15.64 8.27 -99.49 -0.27 -0.55 10.67 -0.02 0.02 0.02
63 15.64 8.27 -99.49 -0.27 -0.43 10.71 -0.02 0.03 0.04
64 15.64 8.27 -99.49 -0.27 -0.39 10.63 -0.03 0.04 0.03
65 15.64 8.27 -99.49 -0.20 -0.43 10.63 -0.03 0.03 0.03
66 15.64 8.27 -99.49 -0.20 -0.43 10.67 -0.02 0.02 0.03
67 15.64 8.27 -99.49 -0.27 -0.39 10.67 -0.02 0.02 0.03
68 15.64 8.27 -99.49 -0.24 -0.43 10.75 -0.02 0.02 0.03
69 15.45 8.09 -99.49 -0.31 -0.51 10.40 -0.02 0.03 0.02
70 15.45 8.09 -99.49 -0.20 -0.39 10.71 -0.03 0.03 0.03
71 15.45 8.09 -99.49 -0.39 -0.35 10.87 -0.02 0.03 0.03
72 15.45 8.09 -99.49 -0.20 -0.43 10.75 -0.02 0.02 0.02
73 15.45 8.09 -99.49 -0.27 -0.43 10.55 -0.02 0.02 0.02
74 15.45 8.09 -99.49 -0.24 -0.35 10.67 -0.02 0.03 0.02
75 15.45 8.09 -99.49 -0.24 -0.47 10.59 -0.03 0.03 0.04
76 15.64 8.45 -99.39 -0.24 -0.39 10.67 -0.03 0.02 0.04
77 15.64 8.45 -99.39 -0.27 -0.47 10.59 -0.03 0.02 0.04
78 15.64 8.45 -99.39 -0.27 -0.47 10.71 -0.02 0.02 0.02
79 15.64 8.45 -99.39 -0.31 -0.43 10.59 -0.02 0.02 0.03
80 15.64 8.45 -99.39 -0.27 -0.47 10.63 -0.03 0.03 0.02
81 15.64 8.45 -99.39 -0.24 -0.39 10.67 -0.03 0.03 0.03
82 15.64 8.45 -99.39 -0.27 -0.47 10.59 -0.02 0.02 0.03
83 15.64 8.27 -99.59 -0.27 -0.43 10.63 -0.02 0.02 0.03
84 15.64 8.27 -99.59 -0.27 -0.43 10.79 -0.02 0.03 0.03
85 15.64 8.27 -99.59 -0.31 -0.43 10.75 -0.02 0.03 0.03
86 15.64 8.27 -99.59 -0.31 -0.43 10.75 -0.02 0.03 0.03
87 15.64 8.27 -99.59 -0.31 -0.43 10.63 -0.03 0.03 0.03
88 15.64 8.27 -99.59 -0.24 -0.43 10.67 -0.02 0.02 0.03
89 15.64 8.27 -99.59 -0.27 -0.43 10.71 -0.02 0.02 0.04
90 15.64 8.36 -99.69 -0.27 -0.35 10.47 -0.02 0.03 0.03
91 15.64 8.36 -99.69 -0.24 -0.43 10.47 -0.02 0.03 0.03
92 15.64 8.36 -99.69 -0.27 -0.47 10.71 -0.02 0.03 0.03
93 15.64 8.36 -99.69 -0.27 -0.47 10.75 -0.02 0.03 0.03
94 15.64 8.36 -99.69 -0.24 -0.43 10.63 -0.02 0.02 0.03
95 15.64 8.36 -99.69 -0.27 -0.51 10.63 -0.02 0.03 0.02
96 15.64 8.36 -99.69 -0.24 -0.43 10.71 -0.02 0.03 0.03
97 15.73 8.55 -99.80 -0.20 -0.51 10.59 -0.03 0.03 0.02
98 15.73 8.55 -99.80 -0.31 -0.35 10.59 -0.02 0.03 0.03
99 15.73 8.55 -99.80 -0.31 -0.43 10.63 -0.02 0.02 0.03
100 15.73 8.55 -99.80 -0.27 -0.47 10.67 -0.02 0.02 0.03
101 15.73 8.55 -99.80 -0.24 -0.39 10.63 -0.02 0.03 0.03
102 15.73 8.55 -99.80 -0.20 -0.55 10.67 -0.02 0.03 0.03
103 15.73 8.55 -99.80 -0.20 -0.55 10.51 -0.02 0.03 0.02
104 15.73 8.55 -99.80 -0.39 -0.47 10.63 -0.02 0.03 0.03
105 15.73 8.55 -99.80 -0.24 -0.43 10.67 -0.02 0.02 0.03
106 15.73 8.55 -99.80 -0.31 -0.43 10.67 -0.02 0.03 0.02
107 15.73 8.55 -99.80 -0.27 -0.43 10.51 -0.02 0.03 0.03
108 15.73 8.55 -99.80 -0.24 -0.39 10.71 -0.03 0.03 0.03
109 15.73 8.55 -99.80 -0.27 -0.47 10.47 -0.02 0.03 0.03
110 15.45 8.45 -99.39 -0.31 -0.39 10.71 -0.02 0.02 0.03
111 15.45 8.45 -99.39 -0.27 -0.43 10.67 -0.02 0.02 0.02
112 15.45 8.45 -99.39 -0.24 -0.47 10.71 -0.02 0.03 0.02
113 15.45 8.45 -99.39 -0.24 -0.47 10.67 -0.03 0.03 0.02
114 15.45 8.45 -99.39 -0.24 -0.35 10.67 -0.02 0.03 0.02
115 15.45 8.45 -99.39 -0.27 -0.39 10.63 -0.02 0.03 0.03
116 15.45 8.45 -99.39 -0.27 -0.47 10.59 -0.02 0.02 0.02
117 15.64 8.36 -99.49 -0.24 -0.43 10.63 -0.02 0.03 0.02
118 15.64 8.36 -99.49 -0.24 -0.43 10.63 -0.02 0.03 0.02
119 15.64 8.36 -99.49 -0.27 -0.47 10.67 -0.02 0.03 0.03
120 15.64 8.36 -99.49 -0.27 -0.43 10.63 -0.02 0.02 0.03
121 15.64 8.36 -99.49 -0.20 -0.43 10.75 -0.02 0.02 0.03
122 15.64 8.36 -99.49 -0.24 -0.43 10.71 -0.02 0.02 0.03
123 15.64 8.36 -99.49 -0.20 -0.47 10.71 -0.02 0.03 0.02
124 15.36 8.36 -99.49 -0.24 -0.43 10.67 -0.03 0.03 0.02
125 15.36 8.36 -99.49 -0.24 -0.43 10.63 -0.02 0.03 0.02
126 15.36 8.36 -99.49 -0.27 -0.43 10.63 -0.02 0.02 0.02
127 15.36 8.36 -99.49 -0.24 -0.47 10.59 -0.02 0.02 0.03
128 15.36 8.36 -99.49 -0.31 -0.39 10.63 -0.02 0.03 0.03
129 15.36 8.36 -99.49 -0.31 -0.39 10.79 -0.02 0.03 0.03
130 15.36 8.36 -99.49 -0.27 -0.39 10.71 -0.02 0.03 0.02
131 15.27 8.45 -99.49 -0.27 -0.51 10.63 -0.02 0.03 0.02
132 15.27 8.45 -99.49 -0.16 -0.47 10.63 -0.02 0.02 0.03
133 15.27 8.45 -99.49 -0.27 -0.47 10.55 -0.02 0.02 0.02
134 15.27 8.45 -99.49 -0.20 -0.51 10.87 -0.02 0.03 0.02
135 15.27 8.45 -99.49 -0.24 -0.43 10.43 -0.02 0.03 0.03
136 15.27 8.45 -99.49 -0.35 -0.43 10.63 -0.02 0.03 0.03
137 15.27 8.45 -99.49 -0.35 -0.43 10.75 -0.02 0.02 0.03
138 15.27 8.45 -99.49 -0.16 -0.47 10.71 -0.02 0.02 0.03
139 15.27 8.45 -99.49 -0.24 -0.47 10.59 -0.02 0.03 0.03
140 15.27 8.45 -99.49 -0.24 -0.43 10.67 -0.02 0.03 0.03
141 15.27 8.45 -99.49 -0.27 -0.43 10.71 -0.03 0.04 0.03
142 15.27 8.45 -99.49 -0.24 -0.43 10.71 -0.02 0.03 0.03
143 15.27 8.45 -99.49 -0.27 -0.47 10.63 -0.02 0.02 0.03
144 15.27 8.45 -99.69 -0.24 -0.47 10.63 -0.02 0.03 0.02
145 15.27 8.45 -99.69 -0.20 -0.43 10.63 -0.02 0.03 0.02
146 15.27 8.45 -99.69 -0.27 -0.39 10.71 -0.03 0.03 0.03
147 15.27 8.45 -99.69 -0.27 -0.39 10.63 -0.02 0.02 0.02
148 15.27 8.45 -99.69 -0.24 -0.43 10.63 -0.02 0.02 0.02
149 15.27 8.45 -99.69 -0.27 -0.51 10.71 -0.02 0.03 0.02
150 15.27 8.45 -99.69 -0.27 -0.43 10.63 -0.02 0.03 0.02
151 15.55 8.27 -99.18 -0.20 -0.39 10.63 -0.02 0.03 0.02
152 15.55 8.27 -99.18 -0.31 -0.39 10.63 -0.02 0.03 0.03
153 15.55 8.27 -99.18 -0.31 -0.43 10.59 -0.02 0.02 0.03
154 15.55 8.27 -99.18 -0.35 -0.43 10.55 -0.02 0.02 0.04
155 15.55 8.27 -99.18 -0.35 -0.43 10.40 -0.02 0.03 0.04
156 15.55 8.27 -99.18 -0.31 -0.39 10.47 -0.02 0.03 0.02
157 15.55 8.27 -99.18 -0.24 -0.43 10.55 -0.02 0.03 0.03
158 15.45 8.36 -99.18 -0.24 -0.47 10.43 -0.02 0.02 0.03
159 15.45 8.36 -99.18 -0.24 -0.35 10.71 -0.02 0.02 0.03
160 15.45 8.36 -99.18 -0.20 -0.43 10.59 -0.02 0.02 0.03
161 15.45 8.36 -99.18 -0.31 -0.47 10.71 -0.02 0.03 0.03
162 15.45 8.36 -99.18 -0.24 -0.55 10.51 -0.03 0.03 0.04
163 15.45 8.36 -99.18 -0.20 -0.43 10.71 -0.02 0.03 0.03
164 15.45 8.36 -99.18 -0.20 -0.43 10.67 -0.02 0.02 0.03
165 15.27 8.36 -99.08 -0.20 -0.35 10.55 -0.02 0.02 0.03
166 15.27 8.36 -99.08 -0.27 -0.39 10.63 -0.02 0.03 0.03
167 15.27 8.36 -99.08 -0.27 -0.47 10.63 -0.02 0.03 0.03
168 15.27 8.36 -99.08 -0.27 -0.51 10.71 -0.02 0.02 0.03
169 15.27 8.36 -99.08 -0.24 -0.47 10.59 -0.02 0.02 0.03
170 15.27 8.36 -99.08 -0.27 -0.47 10.59 -0.02 0.02 0.03
171 15.27 8.36 -99.08 -0.20 -0.47 10.67 -0.02 0.02 0.03
172 15.27 8.55 -99.49 -0.27 -0.39 10.67 -0.03 0.03 0.03
173 15.27 8.55 -99.49 -0.27 -0.47 10.71 -0.03 0.03 0.03
174 15.27 8.55 -99.49 -0.24 -0.51 10.59 -0.02 0.02 0.04
175 15.27 8.55 -99.49 -0.24 -0.39 10.71 -0.02 0.02 0.03
176 15.27 8.55 -99.49 -0.20 -0.47 10.59 -0.02 0.03 0.03
177 15.27 8.55 -99.49 -0.27 -0.43 10.75 -0.03 0.04 0.04
178 15.27 8.55 -99.39 -0.20 -0.47 10.67 -0.03 0.03 0.04
179 15.27 8.55 -99.39 -0.24 -0.47 10.67 -0.02 0.03 0.04
180 15.27 8.55 -99.39 -0.24 -0.43 10.59 -0.02 0.02 0.03
181 15.27 8.55 -99.39 -0.27 -0.43 10.59 -0.02 0.02 0.03
182 15.27 8.55 -99.39 -0.20 -0.47 10.55 -0.02 0.03 0.03
183 15.27 8.55 -99.39 -0.27 -0.43 10.79 -0.03 0.03 0.04
184 15.27 8.55 -99.39 -0.35 -0.47 10.87 -0.03 0.03 0.03
185 15.27 8.27 -99.08 -0.20 -0.43 10.71 -0.02 0.02 0.03
186 15.27 8.27 -99.08 -0.20 -0.51 10.55 -0.02 0.02 0.03
187 15.27 8.27 -99.08 -0.31 -0.35 10.59 -0.02 0.03 0.03
188 15.27 8.27 -99.08 -0.20 -0.43 10.83 -0.02 0.03 0.03
189 15.27 8.27 -99.08 -0.27 -0.43 10.79 -0.03 0.03 0.03
190 15.27 8.27 -99.08 -0.27 -0.43 10.59 -0.03 0.03 0.04
191 15.27 8.27 -99.08 -0.24 -0.47 10.63 -0.02 0.02 0.03
192 15.27 8.45 -99.29 -0.27 -0.51 10.71 -0.02 0.02 0.02
193 15.27 8.45 -99.29 -0.31 -0.43 10.67 -0.02 0.03 0.03
194 15.27 8.45 -99.29 -0.24 -0.43 10.63 -0.03 0.03 0.03
195 15.27 8.45 -99.29 -0.27 -0.43 10.63 -0.02 0.03 0.03
196 15.27 8.45 -99.29 -0.27 -0.47 10.71 -0.02 0.02 0.03
197 15.27 8.45 -99.29 -0.20 -0.39 10.63 -0.02 0.03 0.03
198 15.27 8.45 -99.29 -0.31 -0.51 10.71 -0.02 0.03 0.03
199 15.36 8.55 -99.39 -0.24 -0.43 10.59 -0.02 0.03 0.03
200 15.36 8.55 -99.39 -0.31 -0.39 10.63 -0.03 0.03 0.03
201 15.36 8.55 -99.39 -0.24 -0.43 10.59 -0.02 0.03 0.03
202 15.36 8.55 -99.39 -0.27 -0.39 10.71 -0.02 0.02 0.04
203 15.36 8.55 -99.39 -0.20 -0.47 10.59 -0.02 0.03 0.04
204 15.36 8.55 -99.39 -0.20 -0.47 10.59 -0.03 0.03 0.04
205 15.36 8.55 -99.39 -0.31 -0.43 10.67 -0.03 0.03 0.03
206 15.73 8.82 -99.39 -0.31 -0.43 10.79 -0.02 0.03 0.03
207 15.73 8.82 -99.39 -0.20 -0.43 10.79 -0.02 0.02 0.03
208 15.73 8.82 -99.39 -0.20 -0.43 10.83 -0.02 0.02 0.03
209 15.73 8.82 -99.39 -0.27 -0.43 10.63 -0.02 0.03 0.03
210 15.73 8.82 -99.39 -0.31 -0.47 10.51 -0.03 0.03 0.03
211 15.73 8.82 -99.39 -0.24 -0.55 10.71 -0.03 0.03 0.03
212 15.36 8.82 -99.80 -0.27 -0.47 10.47 -0.02 0.02 0.03
213 15.36 8.82 -99.80 -0.35 -0.43 10.75 -0.02 0.02 0.04
214 15.36 8.82 -99.80 -0.35 -0.39 10.55 -0.02 0.03 0.03
215 15.36 8.82 -99.80 -0.31 -0.43 10.47 -0.03 0.03 0.03
216 15.36 8.82 -99.80 -0.20 -0.39 10.59 -0.02 0.03 0.02
217 15.36 8.82 -99.80 -0.27 -0.39 10.71 -0.02 0.03 0.02
218 15.36 8.82 -99.80 -0.24 -0.43 10.63 -0.02 0.02 0.02
219 15.55 8.27 -99.59 -0.31 -0.39 10.59 -0.02 0.02 0.03
220 15.55 8.27 -99.59 -0.24 -0.47 10.67 -0.02 0.03 0.03
221 15.55 8.27 -99.59 -0.27 -0.43 10.63 -0.03 0.03 0.03
222 15.55 8.27 -99.59 -0.24 -0.35 10.63 -0.02 0.03 0.03
223 15.55 8.27 -99.59 -0.31 -0.51 10.67 -0.02 0.02 0.03
224 15.55 8.27 -99.59 -0.24 -0.51 10.55 -0.02 0.02 0.03
225 15.55 8.27 -99.59 -0.31 -0.47 10.63 -0.02 0.03 0.03
226 15.55 8.36 -99.69 -0.16 -0.55 10.55 -0.03 0.04 0.03
227 15.55 8.36 -99.69 -0.24 -0.43 10.67 -0.03 0.04 0.03
228 15.55 8.36 -99.69 -0.27 -0.39 10.67 -0.02 0.03 0.02
229 15.55 8.36 -99.69 -0.31 -0.47 10.67 -0.02 0.02 0.02
230 15.55 8.36 -99.69 -0.24 -0.39 10.71 -0.02 0.02 0.03
231 15.55 8.36 -99.69 -0.20 -0.47 10.71 -0.03 0.03 0.03
232 15.55 8.36 -99.69 -0.20 -0.47 10.71 -0.03 0.03 0.02
233 15.45 8.27 -99.59 -0.16 -0.47 10.71 -0.02 0.02 0.03
234 15.45 8.27 -99.59 -0.31 -0.47 10.55 -0.02 0.02 0.03
235 15.45 8.27 -99.59 -0.27 -0.43 10.79 -0.02 0.03 0.03
236 15.45 8.27 -99.59 -0.24 -0.47 10.59 -0.02 0.03 0.03
237 15.45 8.27 -99.59 -0.24 -0.43 10.63 -0.03 0.03 0.03
238 15.45 8.27 -99.59 -0.12 -0.43 10.71 -0.03 0.03 0.03
239 15.45 8.27 -99.59 -0.20 -0.35 10.79 -0.02 0.02 0.03
240 15.64 8.36 -99.49 -0.35 -0.31 10.67 -0.02 0.02 0.02
241 15.64 8.36 -99.49 -0.27 -0.39 10.63 -0.02 0.03 0.02
242 15.64 8.36 -99.49 -0.27 -0.47 10.63 -0.03 0.03 0.03
243 15.64 8.36 -99.49 -0.31 -0.47 10.67 -0.03 0.03 0.04
244 15.64 8.36 -99.49 -0.27 -0.47 10.63 -0.02 0.02 0.03
245 15.64 8.36 -99.49 -0.24 -0.47 10.63 -0.02 0.02 0.02
246 15.27 8.18 -99.39 -0.24 -0.43 10.59 -0.02 0.02 0.02
247 15.27 8.18 -99.39 -0.27 -0.47 10.59 -0.02 0.03 0.02
248 15.27 8.18 -99.39 -0.20 -0.47 10.59 -0.03 0.03 0.03
249 15.27 8.18 -99.39 -0.27 -0.43 10.67 -0.02 0.03 0.03
250 15.27 8.18 -99.39 -0.24 -0.47 10.71 -0.02 0.02 0.03
251 15.27 8.18 -99.39 -0.27 -0.47 10.63 -0.02 0.02 0.03
252 15.27 8.18 -99.39 -0.24 -0.47 10.59 -0.02 0.03 0.02
253 15.55 8.18 -99.08 -0.27 -0.47 10.67 -0.03 0.04 0.03
254 15.55 8.18 -99.08 -0.27 -0.47 10.63 -0.03 0.03 0.03
255 15.55 8.18 -99.08 -0.27 -0.51 10.63 -0.03 0.02 0.03
256 15.55 8.18 -99.08 -0.24 -0.39 10.75 -0.02 0.02 0.03
257 15.55 8.18 -99.08 -0.27 -0.43 10.67 -0.02 0.02 0.02
258 15.55 8.18 -99.08 -0.27 -0.43 10.79 -0.02 0.03 0.03
259 15.55 8.18 -99.08 -0.16 -0.43 10.79 -0.02 0.03 0.03
260 15.64 8.36 -99.29 -0.31 -0.47 10.51 -0.02 0.03 0.03
261 15.64 8.36 -99.29 -0.24 -0.43 10.75 -0.02 0.02 0.02
262 15.64 8.36 -99.29 -0.27 -0.43 10.79 -0.02 0.03 0.02
263 15.64 8.36 -99.29 -0.24 -0.47 10.55 -0.02 0.03 0.02
264 15.64 8.36 -99.29 -0.24 -0.39 10.71 -0.02 0.03 0.03
265 15.64 8.36 -99.29 -0.27 -0.47 10.47 -0.02 0.03 0.03
266 15.64 8.36 -99.29 -0.27 -0.43 10.55 -0.02 0.02 0.02
267 15.45 8.45 -99.80 -0.27 -0.43 10.51 -0.02 0.02 0.03
268 15.45 8.45 -99.80 -0.31 -0.47 10.67 -0.02 0.03 0.02
269 15.45 8.45 -99.80 -0.24 -0.43 10.55 -0.02 0.03 0.03
270 15.45 8.45 -99.80 -0.12 -0.47 10.71 -0.02 0.03 0.03
271 15.45 8.45 -99.80 -0.24 -0.39 10.59 -0.02 0.02 0.03
272 15.45 8.45 -99.80 -0.24 -0.43 10.63 -0.02 0.02 0.03
273 15.45 8.45 -99.80 -0.24 -0.43 10.67 -0.02 0.03 0.03
274 15.36 8.27 -99.49 -0.27 -0.39 10.59 -0.02 0.03 0.03
275 15.36 8.27 -99.49 -0.24 -0.43 10.59 -0.02 0.03 0.03
276 15.36 8.27 -99.49 -0.31 -0.39 10.75 -0.02 0.03 0.03
277 15.36 8.27 -99.49 -0.31 -0.39 10.59 -0.02 0.02 0.03
278 15.36 8.27 -99.49 -0.20 -0.39 10.59 -0.02 0.02 0.03
279 15.36 8.27 -99.49 -0.27 -0.47 10.63 -0.02 0.03 0.03
280 15.45 8.55 -99.49 -0.20 -0.47 10.59 -0.02 0.03 0.04
281 15.45 8.55 -99.49 -0.24 -0.39 10.59 -0.02 0.03 0.04
282 15.45 8.55 -99.49 -0.24 -0.47 10.63 -0.02 0.02 0.03
283 15.45 8.55 -99.49 -0.24 -0.47 10.55 -0.02 0.03 0.03
284 15.45 8.55 -99.49 -0.24 -0.47 10.71 -0.02 0.03 0.03
285 15.45 8.55 -99.49 -0.27 -0.39 10.75 -0.02 0.03 0.03
286 15.45 8.55 -99.49 -0.24 -0.47 10.79 -0.02 0.03 0.03
287 15.45 8.27 -99.29 -0.27 -0.43 10.87 -0.02 0.02 0.03
288 15.45 8.27 -99.29 -0.31 -0.47 10.63 -0.02 0.02 0.03
289 15.45 8.27 -99.29 -0.20 -0.47 10.51 -0.02 0.02 0.03
290 15.45 8.27 -99.29 -0.24 -0.47 10.55 -0.02 0.03 0.02
291 15.45 8.27 -99.29 -0.20 -0.43 10.71 -0.02 0.03 0.02
292 15.45 8.27 -99.29 -0.31 -0.43 10.71 -0.02 0.02 0.02
293 15.45 8.27 -99.29 -0.27 -0.43 10.83 -0.02 0.02 0.03
294 15.36 8.09 -99.39 -0.24 -0.39 10.75 -0.02 0.02 0.03
295 15.36 8.09 -99.39 -0.20 -0.43 10.59 -0.02 0.02 0.03
296 15.36 8.09 -99.39 -0.20 -0.47 10.67 -0.03 0.03 0.03
297 15.36 8.09 -99.39 -0.27 -0.47 10.67 -0.02 0.03 0.02
298 15.36 8.09 -99.39 -0.27 -0.47 10.67 -0.02 0.02 0.03
299 15.36 8.09 -99.39 -0.20 -0.43 10.59 -0.02 0.02 0.04
300 15.36 8.09 -99.39 -0.31 -0.39 10.63 -0.02 0.03 0.04
301 15.55 8.36 -99.18 -0.24 -0.43 10.67 -0.03 0.03 0.03
302 15.55 8.36 -99.18 -0.20 -0.43 10.63 -0.02 0.03 0.02
303 15.55 8.36 -99.18 -0.20 -0.43 10.71 -0.02 0.02 0.03
304 15.55 8.36 -99.18 -0.24 -0.39 10.59 -0.02 0.02 0.03
305 15.55 8.36 -99.18 -0.20 -0.51 10.67 -0.02 0.02 0.04
306 15.55 8.36 -99.18 -0.20 -0.47 10.71 -0.02 0.03 0.04
307 15.55 8.36 -99.18 -0.20 -0.43 10.67 -0.03 0.03 0.03
308 15.27 8.36 -99.18 -0.24 -0.47 10.55 -0.02 0.03 0.03
309 15.27 8.36 -99.18 -0.24 -0.55 10.71 -0.02 0.02 0.03
310 15.27 8.36 -99.18 -0.24 -0.55 10.71 -0.02 0.03 0.03
311 15.27 8.36 -99.18 -0.12 -0.43 10.75 -0.02 0.03 0.04
312 15.27 8.36 -99.18 -0.27 -0.47 10.63 -0.02 0.03 0.03
313 15.27 8.36 -99.18 -0.24 -0.43 10.79 -0.02 0.03 0.03
314 15.36 8.73 -99.29 -0.35 -0.35 10.71 -0.02 0.03 0.03
315 15.36 8.73 -99.29 -0.16 -0.47 10.63 -0.02 0.02 0.03
316 15.36 8.73 -99.29 -0.24 -0.43 10.59 -0.02 0.03 0.03
317 15.36 8.73 -99.29 -0.24 -0.47 10.71 -0.03 0.03 0.03
318 15.36 8.73 -99.29 -0.27 -0.43 10.71 -0.03 0.03 0.03
319 15.36 8.73 -99.29 -0.27 -0.43 10.71 -0.02 0.03 0.03
320 15.36 8.73 -99.29 -0.27 -0.47 10.63 -0.02 0.02 0.04
321 15.27 8.45 -99.29 -0.16 -0.43 10.59 -0.02 0.03 0.03
322 15.27 8.45 -99.29 -0.24 -0.43 10.63 -0.03 0.03 0.03
323 15.27 8.45 -99.29 -0.20 -0.43 10.55 -0.03 0.03 0.03
324 15.27 8.45 -99.29 -0.20 -0.43 10.63 -0.02 0.03 0.03
325 15.27 8.45 -99.29 -0.24 -0.39 10.67 -0.02 0.02 0.03
326 15.27 8.45 -99.29 -0.24 -0.43 10.67 -0.02 0.02 0.03
327 15.27 8.45 -99.29 -0.31 -0.47 10.63 -0.02 0.03 0.02
328 15.55 8.64 -99.18 -0.27 -0.43 10.55 -0.02 0.03 0.03
329 15.55 8.64 -99.18 -0.27 -0.43 10.67 -0.03 0.03 0.03
330 15.55 8.64 -99.18 -0.16 -0.43 10.63 -0.02 0.02 0.03
331 15.55 8.64 -99.18 -0.24 -0.43 10.67 -0.02 0.03 0.03
332 15.55 8.64 -99.18 -0.31 -0.39 10.63 -0.02 0.03 0.02
333 15.55 8.64 -99.18 -0.27 -0.43 10.67 -0.02 0.03 0.02
334 15.55 8.64 -99.18 -0.24 -0.39 10.67 -0.02 0.03 0.03
335 15.64 8.45 -99.49 -0.24 -0.39 10.63 -0.03 0.03 0.03
336 15.64 8.45 -99.49 -0.24 -0.39 10.63 -0.02 0.02 0.02
337 15.64 8.45 -99.49 -0.31 -0.43 10.71 -0.02 0.02 0.02
338 15.64 8.45 -99.49 -0.27 -0.47 10.59 -0.02 0.03 0.03
339 15.64 8.45 -99.49 -0.20 -0.47 10.79 -0.03 0.04 0.03
340 15.64 8.45 -99.49 -0.20 -0.43 10.71 -0.03 0.03 0.03
341 15.64 8.45 -99.49 -0.20 -0.43 10.67 -0.02 0.02 0.03
342 15.09 8.55 -99.29 -0.16 -0.47 10.87 -0.02 0.02 0.03
343 15.09 8.55 -99.29 -0.24 -0.43 10.67 -0.02 0.02 0.03
344 15.09 8.55 -99.29 -0.20 -0.43 10.55 -0.03 0.03 0.04
345 15.09 8.55 -99.29 -0.20 -0.47 10.75 -0.03 0.03 0.03
346 15.09 8.55 -99.29 -0.24 -0.43 10.63 -0.03 0.03 0.02
347 15.09 8.55 -99.29 -0.24 -0.47 10.63 -0.02 0.02 0.02
348 15.36 8.64 -99.39 -0.24 -0.43 10.63 -0.02 0.03 0.02
349 15.36 8.64 -99.39 -0.27 -0.43 10.59 -0.03 0.03 0.03
350 15.36 8.64 -99.39 -0.27 -0.43 10.67 -0.03 0.03 0.03
351 15.36 8.64 -99.39 -0.20 -0.47 10.63 -0.03 0.02 0.03
352 15.36 8.64 -99.39 -0.27 -0.47 10.67 -0.02 0.02 0.03
353 15.36 8.64 -99.39 -0.24 -0.39 10.63 -0.02 0.02 0.03
354 15.36 8.64 -99.39 -0.27 -0.35 10.67 -0.02 0.03 0.03
355 15.27 8.64 -99.49 -0.27 -0.43 10.67 -0.02 0.03 0.02
356 15.27 8.64 -99.49 -0.24 -0.39 10.67 -0.03 0.03 0.02
357 15.27 8.64 -99.49 -0.24 -0.39 10.71 -0.02 0.02 0.03
358 15.27 8.64 -99.49 -0.20 -0.39 10.55 -0.02 0.02 0.02
359 15.27 8.64 -99.49 -0.24 -0.39 10.67 -0.02 0.03 0.03
360 15.27 8.64 -99.49 -0.20 -0.47 10.71 -0.02 0.04 0.02
361 15.27 8.64 -99.49 -0.20 -0.47 10.47 -0.02 0.04 0.02
362 15.36 8.55 -99.49 -0.31 -0.35 10.47 -0.02 0.03 0.02
363 15.36 8.55 -99.49 -0.24 -0.43 10.83 -0.02 0.02 0.03
364 15.36 8.55 -99.49 -0.24 -0.43 10.47 -0.02 0.02 0.03
365 15.36 8.55 -99.49 -0.24 -0.43 10.83 -0.02 0.03 0.02
366 15.36 8.55 -99.49 -0.27 -0.47 10.59 -0.03 0.03 0.03
367 15.36 8.55 -99.49 -0.16 -0.43 10.55 -0.02 0.03 0.03
368 15.36 8.55 -99.49 -0.20 -0.39 10.83 -0.02 0.02 0.03
369 15.27 8.36 -99.39 -0.24 -0.47 10.63 -0.02 0.02 0.03
370 15.27 8.36 -99.39 -0.27 -0.43 10.59 -0.02 0.03 0.03
371 15.27 8.36 -99.39 -0.20 -0.43 10.71 -0.02 0.03 0.03
372 15.27 8.36 -99.39 -0.20 -0.47 10.71 -0.02 0.03 0.02
373 15.27 8.36 -99.39 -0.27 -0.43 10.63 -0.02 0.03 0.03
374 15.27 8.36 -99.39 -0.24 -0.43 10.59 -0.02 0.02 0.03
375 15.27 8.36 -99.39 -0.24 -0.39 10.67 -0.02 0.02 0.03
376 15.36 8.45 -99.59 -0.24 -0.43 10.71 -0.02 0.03 0.02
377 15.36 8.45 -99.59 -0.24 -0.43 10.63 -0.02 0.03 0.02
378 15.36 8.45 -99.59 -0.24 -0.43 10.71 -0.02 0.03 0.03
379 15.36 8.45 -99.59 -0.24 -0.47 10.71 -0.02 0.02 0.03
380 15.36 8.45 -99.59 -0.24 -0.43 10.63 -0.02 0.03 0.03
381 15.36 8.45 -99.59 -0.24 -0.43 10.67 -0.02 0.03 0.03
382 15.55 8.45 -99.39 -0.27 -0.47 10.67 -0.02 0.03 0.03
383 15.55 8.45 -99.39 -0.27 -0.51 10.67 -0.02 0.03 0.03
384 15.55 8.45 -99.39 -0.24 -0.47 10.63 -0.02 0.03 0.02
385 15.55 8.45 -99.39 -0.27 -0.43 10.67 -0.02 0.02 0.02
386 15.55 8.45 -99.39 -0.31 -0.43 10.67 -0.02 0.03 0.02
387 15.55 8.45 -99.39 -0.31 -0.43 10.36 -0.02 0.03 0.02
388 15.55 8.45 -99.39 -0.20 -0.47 10.43 -0.02 0.03 0.02
389 15.36 8.45 -99.49 -0.31 -0.43 10.71 -0.02 0.02 0.02
390 15.36 8.45 -99.49 -0.12 -0.47 10.67 -0.02 0.02 0.02
391 15.36 8.45 -99.49 -0.20 -0.43 10.71 -0.02 0.02 0.03
392 15.36 8.45 -99.49 -0.27 -0.39 10.59 -0.02 0.03 0.03
393 15.36 8.45 -99.49 -0.31 -0.39 10.71 -0.03 0.03 0.03
394 15.36 8.45 -99.49 -0.27 -0.43 10.55 -0.02 0.03 0.02
395 15.36 8.45 -99.49 -0.31 -0.43 10.51 -0.02 0.02 0.03
396 15.45 8.64 -99.49 -0.20 -0.39 10.75 -0.02 0.02 0.03
397 15.45 8.64 -99.49 -0.20 -0.39 10.67 -0.02 0.03 0.03
398 15.45 8.64 -99.49 -0.24 -0.43 10.67 -0.02 0.03 0.03
399 15.45 8.64 -99.49 -0.24 -0.51 10.63 -0.02 0.03 0.03
400 15.45 8.64 -99.49 -0.24 -0.43 10.67 -0.02 0.03 0.03
401 15.45 8.64 -99.49 -0.24 -0.43 10.67 -0.02 0.02 0.03
402 15.45 8.64 -99.49 -0.20 -0.47 10.67 -0.02 0.02 0.03
403 15.55 8.45 -99.59 -0.24 -0.47 10.79 -0.02 0.03 0.03
404 15.55 8.45 -99.59 -0.24 -0.47 10.63 -0.02 0.03 0.02
405 15.55 8.45 -99.59 -0.24 -0.51 10.67 -0.02 0.03 0.02
406 15.55 8.45 -99.59 -0.27 -0.47 10.63 -0.02 0.02 0.03
407 15.55 8.45 -99.59 -0.27 -0.43 10.67 -0.02 0.02 0.04
408 15.55 8.45 -99.59 -0.20 -0.47 10.55 -0.02 0.03 0.04
409 15.55 8.45 -99.59 -0.27 -0.43 10.75 -0.02 0.03 0.04
410 15.55 8.45 -99.59 -0.31 -0.47 10.59 -0.02 0.03 0.04
411 15.55 8.45 -99.59 -0.16 -0.39 10.63 -0.02 0.03 0.03
412 15.55 8.45 -99.59 -0.31 -0.51 10.59 -0.02 0.02 0.04
413 15.55 8.45 -99.59 -0.31 -0.51 10.59 -0.02 0.03 0.03
414 15.55 8.45 -99.59 -0.27 -0.39 10.83 -0.02 0.03 0.03
415 15.55 8.45 -99.59 -0.16 -0.43 10.59 -0.02 0.03 0.03
416 15.45 8.36 -99.69 -0.20 -0.51 10.59 -0.02 0.02 0.03
417 15.45 8.36 -99.69 -0.20 -0.47 10.59 -0.02 0.02 0.03
418 15.45 8.36 -99.69 -0.24 -0.43 10.75 -0.02 0.03 0.03
419 15.45 8.36 -99.69 -0.31 -0.39 10.51 -0.02 0.03 0.03
420 15.45 8.36 -99.69 -0.24 -0.51 10.71 -0.03 0.03 0.03
421 15.45 8.36 -99.69 -0.24 -0.43 10.63 -0.02 0.03 0.03
422 15.45 8.36 -99.69 -0.27 -0.43 10.59 -0.02 0.02 0.03
423 15.73 8.18 -99.59 -0.24 -0.47 10.63 -0.02 0.02 0.03
424 15.73 8.18 -99.59 -0.20 -0.47 10.67 -0.02 0.03 0.03
425 15.73 8.18 -99.59 -0.27 -0.47 10.75 -0.03 0.03 0.03
426 15.73 8.18 -99.59 -0.20 -0.47 10.63 -0.02 0.03 0.04
427 15.73 8.18 -99.59 -0.24 -0.43 10.67 -0.02 0.02 0.03
428 15.73 8.18 -99.59 -0.20 -0.43 10.63 -0.02 0.02 0.02
429 15.73 8.18 -99.59 -0.24 -0.47 10.63 -0.02 0.02 0.02
430 15.64 8.45 -99.39 -0.20 -0.43 10.67 -0.03 0.03 0.03
431 15.64 8.45 -99.39 -0.27 -0.47 10.67 -0.03 0.03 0.04
432 15.64 8.45 -99.39 -0.20 -0.43 10.75 -0.02 0.03 0.03
433 15.64 8.45 -99.39 -0.24 -0.51 10.63 -0.02 0.02 0.03
434 15.64 8.45 -99.39 -0.24 -0.55 10.67 -0.02 0.02 0.03
435 15.64 8.45 -99.39 -0.27 -0.51 10.67 -0.03 0.03 0.03
436 15.64 8.45 -99.39 -0.20 -0.43 10.67 -0.03 0.03 0.03
437 15.64 8.36 -99.39 -0.27 -0.47 10.63 -0.02 0.02 0.03
438 15.64 8.36 -99.39 -0.27 -0.39 10.75 -0.02 0.02 0.07
439 15.64 8.36 -99.39 -0.20 -0.39 10.75 -0.02 0.02 0.04
440 15.64 8.36 -99.39 -0.27 -0.43 10.83 -0.02 0.03 0.03
441 15.64 8.36 -99.39 -0.24 -0.47 10.63 -0.03 0.03 0.02
442 15.64 8.36 -99.39 -0.24 -0.43 10.79 -0.03 0.03 0.03
443 15.64 8.36 -99.39 -0.12 -0.47 10.63 -0.02 0.03 0.04
444 15.55 8.36 -99.80 -0.20 -0.51 10.59 -0.02 0.02 0.03
445 15.55 8.36 -99.80 -0.27 -0.47 10.55 -0.02 0.03 0.03
446 15.55 8.36 -99.80 -0.27 -0.39 10.67 -0.03 0.03 0.03
447 15.55 8.36 -99.80 -0.16 -0.43 10.67 -0.03 0.03 0.04
448 15.55 8.36 -99.80 -0.27 -0.39 10.51 -0.03 0.03 0.04
449 15.55 8.36 -99.80 -0.24 -0.39 10.67 -0.02 0.02 0.03
450 15.55 8.45 -99.49 -0.24 -0.43 10.63 -0.02 0.02 0.03
451 15.55 8.45 -99.49 -0.24 -0.47 10.59 -0.02 0.03 0.03
452 15.55 8.45 -99.49 -0.27 -0.43 10.71 -0.03 0.04 0.03
453 15.55 8.45 -99.49 -0.27 -0.39 10.71 -0.03 0.03 0.03
454 15.55 8.45 -99.49 -0.27 -0.43 10.59 -0.02 0.02 0.03
455 15.55 8.45 -99.49 -0.24 -0.51 10.59 -0.02 0.02 0.03
456 15.55 8.45 -99.49 -0.27 -0.39 10.67 -0.02 0.03 0.03
457 15.36 8.18 -99.29 -0.24 -0.43 10.55 -0.02 0.03 0.03
458 15.36 8.18 -99.29 -0.24 -0.39 10.63 -0.03 0.03 0.03
459 15.36 8.18 -99.29 -0.24 -0.51 10.67 -0.03 0.03 0.03
460 15.36 8.18 -99.29 -0.20 -0.51 10.67 -0.03 0.02 0.03
461 15.36 8.18 -99.29 -0.27 -0.51 10.71 -0.02 0.02 0.03
462 15.36 8.18 -99.29 -0.24 -0.35 10.63 -0.03 0.03 0.03
463 15.36 8.18 -99.29 -0.20 -0.47 10.75 -0.03 0.03 0.03
464 15.27 8.45 -99.29 -0.20 -0.47 10.55 -0.02 0.03 0.03
465 15.27 8.45 -99.29 -0.31 -0.43 10.55 -0.02 0.02 0.03
466 15.27 8.45 -99.29 -0.35 -0.47 10.59 -0.02 0.02 0.04
467 15.27 8.45 -99.29 -0.16 -0.47 10.55 -0.02 0.02 0.04
468 15.27 8.45 -99.29 -0.27 -0.43 10.83 -0.03 0.03 0.03
469 15.27 8.45 -99.29 -0.27 -0.43 10.63 -0.03 0.03 0.03
470 15.27 8.45 -99.29 -0.24 -0.47 10.55 -0.02 0.02 0.03
471 15.27 8.36 -99.39 -0.20 -0.43 10.59 -0.02 0.02 0.02
472 15.27 8.36 -99.39 -0.16 -0.47 10.55 -0.02 0.03 0.04
473 15.27 8.36 -99.39 -0.20 -0.51 10.67 -0.03 0.03 0.04
474 15.27 8.36 -99.39 -0.16 -0.39 10.71 -0.03 0.03 0.03
475 15.27 8.36 -99.39 -0.24 -0.43 10.75 -0.02 0.03 0.03
476 15.27 8.36 -99.39 -0.16 -0.51 10.71 -0.02 0.02 0.03
477 15.27 8.36 -99.39 -0.24 -0.39 10.63 -0.02 0.02 0.03
478 15.45 8.45 -99.39 -0.27 -0.39 10.63 -0.02 0.03 0.04
479 15.45 8.45 -99.39 -0.27 -0.47 10.71 -0.02 0.04 0.02
480 15.45 8.45 -99.39 -0.24 -0.47 10.67 -0.02 0.03 0.02
481 15.45 8.45 -99.39 -0.27 -0.43 10.67 -0.02 0.03 0.02
482 15.45 8.45 -99.39 -0.24 -0.43 10.55 -0.02 0.02 0.02
483 15.45 8.45 -99.39 -0.20 -0.43 10.55 -0.03 0.03 0.04
484 15.36 8.55 -99.49 -0.31 -0.47 10.67 -0.03 0.03 0.04
485 15.36 8.55 -99.49 -0.20 -0.43 10.75 -0.02 0.03 0.02
486 15.36 8.55 -99.49 -0.20 -0.39 10.63 -0.02 0.03 0.03
487 15.36 8.55 -99.49 -0.31 -0.39 10.63 -0.02 0.02 0.03
488 15.36 8.55 -99.49 -0.20 -0.43 10.67 -0.02 0.02 0.04
489 15.36 8.55 -99.49 -0.24 -0.47 10.63 -0.02 0.03 0.03
490 15.36 8.55 -99.49 -0.24 -0.47 10.43 -0.02 0.04 0.01
491 15.36 8.55 -99.29 -0.31 -0.43 10.43 -0.02 0.03 0.03
492 15.36 8.55 -99.29 -0.27 -0.43 10.67 -0.02 0.02 0.03
493 15.36 8.55 -99.29 -0.24 -0.43 10.51 -0.02 0.02 0.02
494 15.36 8.55 -99.29 -0.31 -0.47 10.55 -0.02 0.03 0.02
495 15.36 8.55 -99.29 -0.24 -0.35 10.59 -0.03 0.03 0.03
496 15.36 8.55 -99.29 -0.20 -0.43 10.59 -0.03 0.03 0.03
497 15.36 8.55 -99.29 -0.31 -0.43 10.55 -0.02 0.03 0.02
498 15.18 8.45 -99.49 -0.27 -0.47 10.55 -0.02 0.02 0.02
499 15.18 8.45 -99.49 -0.20 -0.47 10.75 -0.02 0.03 0.03
500 15.18 8.45 -99.49 -0.16 -0.51 10.51 -0.03 0.03 0.03
501 15.18 8.45 -99.49 -0.27 -0.43 10.63 -0.02 0.03 0.02
502 15.18 8.45 -99.49 -0.24 -0.43 10.67 -0.02 0.03 0.03
503 15.18 8.45 -99.49 -0.24 -0.43 10.67 -0.02 0.02 0.03
504 15.18 8.45 -99.49 -0.20 -0.39 10.71 -0.02 0.02 0.03
505 15.36 8.36 -99.59 -0.24 -0.55 10.63 -0.02 0.03 0.03
506 15.36 8.36 -99.59 -0.20 -0.39 10.71 -0.03 0.03 0.03
507 15.36 8.36 -99.59 -0.24 -0.43 10.75 -0.02 0.03 0.02
508 15.36 8.36 -99.59 -0.24 -0.47 10.63 -0.02 0.02 0.03
509 15.36 8.36 -99.59 -0.27 -0.51 10.71 -0.02 0.02 0.02
510 15.36 8.36 -99.59 -0.24 -0.43 10.75 -0.02 0.03 0.03
511 15.36 8.36 -99.59 -0.31 -0.47 10.67 -0.02 0.03 0.03
512 15.45 8.36 -99.59 -0.20 -0.39 10.75 -0.02 0.03 0.03
513 15.45 8.36 -99.59 -0.24 -0.43 10.55 -0.02 0.02 0.03
514 15.45 8.36 -99.59 -0.20 -0.47 10.67 -0.02 0.02 0.03
515 15.45 8.36 -99.59 -0.31 -0.39 10.59 -0.02 0.02 0.03
516 15.45 8.36 -99.59 -0.31 -0.39 10.43 -0.02 0.02 0.04
517 15.45 8.36 -99.59 -0.27 -0.51 10.43 -0.02 0.03 0.02
518 0.00 0.00 0.00 -0.24 -0.43 10.59 -0.02 0.03 0.03
519 15.36 8.64 -99.69 -0.20 -0.39 10.79 -0.02 0.03 0.02
520 15.36 8.64 -99.69 -0.16 -0.47 10.59 -0.02 0.02 0.03
521 15.36 8.64 -99.69 -0.24 -0.43 10.79 -0.02 0.03 0.03
522 15.36 8.64 -99.69 -0.20 -0.47 10.75 -0.03 0.03 0.03
523 15.36 8.64 -99.69 -0.20 -0.51 10.75 -0.02 0.03 0.03
524 15.36 8.64 -99.69 -0.27 -0.39 10.71 -0.02 0.03 0.03
525 15.45 8.64 -99.18 -0.20 -0.47 10.59 -0.02 0.02 0.03
526 15.45 8.64 -99.18 -0.24 -0.51 10.59 -0.02 0.02 0.04
527 15.45 8.64 -99.18 -0.20 -0.39 10.63 -0.02 0.03 0.04
528 15.45 8.64 -99.18 -0.24 -0.47 10.67 -0.03 0.03 0.04
529 15.45 8.64 -99.18 -0.24 -0.47 10.67 -0.02 0.03 0.04
530 15.45 8.64 -99.18 -0.27 -0.39 10.59 -0.02 0.02 0.04
531 15.45 8.64 -99.18 -0.27 -0.47 10.59 -0.02 0.02 0.03
532 15.27 8.18 -99.39 -0.27 -0.35 10.63 -0.02 0.03 0.03
533 15.27 8.18 -99.39 -0.24 -0.43 10.59 -0.03 0.03 0.03
534 15.27 8.18 -99.39 -0.24 -0.47 10.75 -0.03 0.03 0.03
535 15.27 8.18 -99.39 -0.27 -0.47 10.59 -0.02 0.03 0.04
536 15.27 8.18 -99.39 -0.20 -0.35 10.63 -0.02 0.02 0.02
537 15.27 8.18 -99.39 -0.24 -0.47 10.67 -0.02 0.03 0.03
538 15.27 8.18 -99.39 -0.24 -0.39 10.63 -0.02 0.03 0.04
539 15.27 8.55 -99.49 -0.20 -0.43 10.63 -0.03 0.03 0.04
540 15.27 8.55 -99.49 -0.20 -0.59 10.75 -0.02 0.03 0.03
541 15.27 8.55 -99.49 -0.27 -0.51 10.75 -0.02 0.02 0.03
542 15.27 8.55 -99.49 -0.20 -0.43 10.63 -0.02 0.03 0.03
543 15.27 8.55 -99.49 -0.20 -0.43 10.59 -0.02 0.03 0.03
544 15.27 8.55 -99.49 -0.24 -0.47 10.51 -0.02 0.03 0.03
545 15.27 8.55 -99.49 -0.39 -0.39 10.75 -0.03 0.03 0.04
546 15.45 8.45 -99.69 -0.24 -0.43 10.55 -0.02 0.02 0.03
547 15.45 8.45 -99.69 -0.24 -0.47 10.59 -0.02 0.02 0.03
548 15.45 8.45 -99.69 -0.27 -0.47 10.55 -0.02 0.03 0.03
549 15.45 8.45 -99.69 -0.35 -0.51 10.63 -0.03 0.03 0.03
550 15.45 8.45 -99.69 -0.24 -0.35 10.63 -0.02 0.03 0.03
551 15.45 8.45 -99.69 -0.24 -0.39 10.67 -0.02 0.02 0.03
552 15.45 8.27 -99.59 -0.24 -0.51 10.75 -0.02 0.02 0.03
553 15.45 8.27 -99.59 -0.24 -0.39 10.67 -0.02 0.02 0.03
554 15.45 8.27 -99.59 -0.20 -0.39 10.71 -0.02 0.03 0.03
555 15.45 8.27 -99.59 -0.27 -0.43 10.63 -0.03 0.03 0.03
556 15.45 8.27 -99.59 -0.24 -0.39 10.63 -0.03 0.03 0.03
557 15.45 8.27 -99.59 -0.20 -0.47 10.63 -0.02 0.02 0.03
558 15.45 8.27 -99.59 -0.20 -0.47 10.67 -0.02 0.03 0.02
559 15.45 8.27 -99.59 -0.24 -0.43 10.59 -0.02 0.03 0.02
560 15.45 8.27 -99.59 -0.27 -0.43 10.67 -0.03 0.03 0.02
561 15.45 8.27 -99.59 -0.24 -0.39 10.59 -0.02 0.03 0.02
562 15.45 8.27 -99.59 -0.27 -0.47 10.75 -0.02 0.02 0.03
563 15.45 8.27 -99.59 -0.27 -0.47 10.67 -0.02 0.02 0.03
564 15.45 8.27 -99.59 -0.24 -0.39 10.63 -0.02 0.02 0.03
565 15.45 8.27 -99.59 -0.20 -0.47 10.59 -0.02 0.03 0.04
566 15.45 8.18 -99.69 -0.20 -0.47 10.43 -0.03 0.03 0.03
567 15.45 8.18 -99.69 -0.27 -0.51 10.47 -0.02 0.03 0.03
568 15.45 8.18 -99.69 -0.20 -0.51 10.67 -0.02 0.03 0.03
569 15.45 8.18 -99.69 -0.31 -0.51 10.51 -0.02 0.03 0.02
570 15.45 8.18 -99.69 -0.20 -0.51 10.83 -0.03 0.03 0.03
571 15.45 8.18 -99.69 -0.27 -0.47 10.71 -0.03 0.03 0.03
572 15.45 8.18 -99.69 -0.20 -0.43 10.83 -0.03 0.03 0.03
573 15.45 8.36 -99.29 -0.35 -0.47 10.59 -0.02 0.03 0.03
574 15.45 8.36 -99.29 -0.35 -0.43 10.51 -0.02 0.03 0.02
575 15.45 8.36 -99.29 -0.27 -0.51 10.59 -0.02 0.03 0.02
576 15.45 8.36 -99.29 -0.24 -0.43 10.67 -0.03 0.03 0.03
577 15.45 8.36 -99.29 -0.20 -0.47 10.55 -0.03 0.03 0.04
578 15.45 8.36 -99.29 -0.20 -0.47 10.67 -0.02 0.03 0.03
579 15.45 8.36 -99.29 -0.24 -0.39 10.67 -0.02 0.02 0.02
580 15.36 8.18 -99.59 -0.24 -0.51 10.59 -0.02 0.03 0.02
581 15.36 8.18 -99.59 -0.27 -0.43 10.71 -0.02 0.03 0.02
582 15.36 8.18 -99.59 -0.24 -0.51 10.71 -0.02 0.03 0.02
583 15.36 8.18 -99.59 -0.24 -0.47 10.71 -0.02 0.03 0.02
584 15.36 8.18 -99.59 -0.20 -0.43 10.55 -0.02 0.03 0.02
585 15.36 8.18 -99.59 -0.27 -0.43 10.59 -0.02 0.02 0.02
586 15.36 8.36 -99.90 -0.27 -0.43 10.67 -0.02 0.03 0.02
587 15.64 8.36 -99.90 -0.24 -0.43 10.59 -0.02 0.03 0.01
588 15.64 8.36 -99.90 -0.20 -0.51 10.67 -0.02 0.03 0.02
589 15.64 8.36 -99.90 -0.27 -0.47 10.63 -0.02 0.02 0.03
590 15.64 8.36 -99.90 -0.16 -0.43 10.67 -0.02 0.02 0.03
591 15.64 8.36 -99.90 -0.31 -0.51 10.63 -0.02 0.03 0.03
592 15.64 8.36 -99.90 -0.31 -0.51 10.63 -0.02 0.03 0.03
593 15.45 8.55 -99.59 -0.27 -0.47 10.51 -0.02 0.03 0.03
594 15.45 8.55 -99.59 -0.20 -0.43 10.63 -0.02 0.03 0.03
595 15.45 8.55 -99.59 -0.27 -0.39 10.59 -0.02 0.02 0.03
596 15.45 8.55 -99.59 -0.20 -0.43 10.79 -0.02 0.03 0.02
597 15.45 8.55 -99.59 -0.20 -0.43 10.47 -0.02 0.03 0.02
598 15.45 8.55 -99.59 -0.24 -0.47 10.75 -0.02 0.03 0.02
599 15.45 8.55 -99.59 -0.35 -0.39 10.59 -0.02 0.02 0.03
600 15.55 8.27 -99.39 -0.31 -0.43 10.79 -0.02 0.02 0.03
601 15.55 8.27 -99.39 -0.27 -0.35 10.75 -0.02 0.02 0.03
602 15.55 8.27 -99.39 -0.24 -0.47 10.71 -0.02 0.03 0.03
603 15.55 8.27 -99.39 -0.20 -0.39 10.63 -0.02 0.03 0.03
604 15.55 8.27 -99.39 -0.27 -0.51 10.63 -0.02 0.03 0.02
605 15.55 8.27 -99.39 -0.24 -0.43 10.71 -0.02 0.02 0.03
606 15.55 8.27 -99.39 -0.24 -0.47 10.59 -0.02 0.02 0.03
607 15.64 8.36 -99.39 -0.20 -0.47 10.67 -0.02 0.03 0.03
608 15.64 8.36 -99.39 -0.27 -0.35 10.67 -0.02 0.03 0.02
609 15.64 8.36 -99.39 -0.24 -0.43 10.63 -0.02 0.03 0.03
610 15.64 8.36 -99.39 -0.27 -0.43 10.67 -0.02 0.03 0.02
611 15.64 8.36 -99.39 -0.20 -0.43 10.63 -0.02 0.03 0.02
612 15.64 8.36 -99.39 -0.27 -0.39 10.67 -0.02 0.02 0.03
613 15.64 8.36 -99.39 -0.24 -0.43 10.67 -0.02 0.03 0.02
614 15.36 8.27 -99.29 -0.27 -0.47 10.63 -0.02 0.04 0.02
615 15.36 8.27 -99.29 -0.27 -0.39 10.67 -0.02 0.03 0.03
616 15.36 8.27 -99.29 -0.20 -0.47 10.79 -0.02 0.02 0.01
617 15.36 8.27 -99.29 -0.20 -0.47 10.67 -0.02 0.02 0.02
618 15.36 8.27 -99.29 -0.20 -0.39 10.67 -0.02 0.03 0.03
619 15.36 8.27 -99.29 -0.24 -0.43 10.67 -0.02 0.03 0.03
620 15.36 8.36 -99.29 -0.24 -0.35 10.67 -0.02 0.03 0.03
621 15.55 8.36 -99.29 -0.31 -0.43 10.71 -0.03 0.03 0.03
622 15.55 8.36 -99.29 -0.20 -0.43 10.75 -0.02 0.02 0.03
623 15.55 8.36 -99.29 -0.24 -0.47 10.75 -0.02 0.02 0.04
624 15.55 8.36 -99.29 -0.27 -0.35 10.55 -0.02 0.03 0.03
625 15.55 8.36 -99.29 -0.24 -0.39 10.87 -0.02 0.03 0.03
626 15.55 8.36 -99.29 -0.27 -0.43 10.63 -0.02 0.03 0.03
627 15.45 8.36 -99.39 -0.27 -0.39 10.63 -0.02 0.02 0.03
628 15.45 8.36 -99.39 -0.27 -0.43 10.63 -0.02 0.02 0.04
629 15.45 8.36 -99.39 -0.27 -0.43 10.59 -0.02 0.03 0.03
630 15.45 8.36 -99.39 -0.27 -0.39 10.55 -0.02 0.03 0.03
631 15.45 8.36 -99.39 -0.20 -0.47 10.63 -0.03 0.03 0.02
632 15.45 8.36 -99.39 -0.24 -0.47 10.71 -0.02 0.03 0.03
633 15.45 8.36 -99.39 -0.20 -0.47 10.63 -0.02 0.02 0.04
634 15.55 8.55 -99.29 -0.35 -0.35 10.63 -0.02 0.01 0.04
635 15.55 8.55 -99.29 -0.31 -0.39 10.59 -0.02 0.03 0.04
636 15.55 8.55 -99.29 -0.27 -0.39 10.67 -0.03 0.04 0.03
637 15.55 8.55 -99.29 -0.27 -0.43 10.67 -0.02 0.03 0.04
638 15.55 8.55 -99.29 -0.24 -0.47 10.67 -0.02 0.02 0.04
639 15.55 8.55 -99.29 -0.24 -0.47 10.67 -0.02 0.01 0.03
640 15.55 8.55 -99.29 -0.24 -0.51 10.63 -0.02 0.01 0.03
641 15.45 8.55 -99.29 -0.24 -0.43 10.59 -0.01 0.03 0.03
642 15.45 8.55 -99.29 -0.24 -0.39 10.67 -0.03 0.04 0.03
643 15.45 8.55 -99.29 -0.24 -0.55 10.51 -0.03 0.04 0.03
644 15.45 8.55 -99.29 -0.31 -0.55 10.51 -0.02 0.02 0.02
645 15.45 8.55 -99.29 -0.27 -0.43 10.75 -0.02 0.01 0.03
646 15.45 8.55 -99.29 -0.27 -0.43 10.43 -0.02 0.02 0.03
647 15.45 8.55 -99.29 -0.35 -0.39 10.67 -0.03 0.04 0.03
648 15.45 8.36 -99.39 -0.24 -0.47 10.67 -0.03 0.04 0.03
649 15.45 8.36 -99.39 -0.24 -0.51 10.55 -0.03 0.04 0.03
650 15.45 8.36 -99.39 -0.24 -0.43 10.71 -0.02 0.03 0.04
651 15.45 8.36 -99.39 -0.24 -0.43 10.59 -0.02 0.01 0.04
652 15.45 8.36 -99.39 -0.27 -0.39 10.51 -0.02 0.02 0.04
653 15.45 8.36 -99.39 -0.27 -0.51 10.55 -0.03 0.04 0.04
654 15.45 8.36 -99.59 -0.27 -0.43 10.67 -0.03 0.04 0.03
655 15.36 8.36 -99.59 -0.20 -0.43 10.63 -0.02 0.03 0.04
656 15.36 8.36 -99.59 -0.20 -0.39 10.71 -0.02 0.02 0.03
657 15.36 8.36 -99.59 -0.27 -0.39 10.55 -0.02 0.02 0.03
658 15.36 8.36 -99.59 -0.27 -0.47 10.63 -0.03 0.03 0.03
659 15.36 8.36 -99.59 -0.20 -0.43 10.63 -0.03 0.03 0.03
660 15.36 8.36 -99.59 -0.27 -0.43 10.59 -0.03 0.03 0.04
661 15.09 8.27 -99.29 -0.20 -0.39 10.71 -0.02 0.03 0.03
662 15.09 8.27 -99.29 -0.27 -0.43 10.59 -0.02 0.02 0.03
663 15.09 8.27 -99.29 -0.24 -0.47 10.63 -0.02 0.02 0.04
664 15.09 8.27 -99.29 -0.20 -0.47 10.67 -0.03 0.03 0.03
665 15.09 8.27 -99.29 -0.24 -0.51 10.59 -0.03 0.03 0.04
666 15.09 8.27 -99.29 -0.24 -0.35 10.67 -0.02 0.02 0.03
667 15.09 8.27 -99.29 -0.24 -0.47 10.59 -0.02 0.02 0.04
668 15.36 8.55 -99.29 -0.27 -0.47 10.63 -0.02 0.02 0.03
669 15.36 8.55 -99.29 -0.27 -0.47 10.94 -0.03 0.03 0.03
670 15.36 8.55 -99.29 -0.24 -0.43 10.83 -0.03 0.03 0.03
671 15.36 8.55 -99.29 -0.27 -0.47 10.71 -0.02 0.03 0.04
672 15.36 8.55 -99.29 -0.27 -0.39 10.63 -0.02 0.02 0.04
673 15.36 8.55 -99.29 -0.24 -0.47 10.51 -0.02 0.03 0.03
674 15.36 8.55 -99.29 -0.24 -0.35 10.51 -0.03 0.03 0.03
675 15.45 8.18 -99.59 -0.31 -0.51 10.55 -0.03 0.03 0.03
676 15.45 8.18 -99.59 -0.31 -0.43 10.47 -0.02 0.03 0.03
677 15.45 8.18 -99.59 -0.35 -0.43 10.59 -0.02 0.02 0.03
678 15.45 8.18 -99.59 -0.20 -0.43 10.75 -0.02 0.02 0.03
679 15.45 8.18 -99.59 -0.20 -0.43 10.67 -0.02 0.03 0.03
680 15.45 8.18 -99.59 -0.24 -0.43 10.55 -0.03 0.03 0.04
681 15.45 8.18 -99.59 -0.27 -0.43 10.71 -0.03 0.03 0.02
682 15.64 8.45 -99.39 -0.24 -0.47 10.55 -0.02 0.03 0.02
683 15.64 8.45 -99.39 -0.24 -0.35 10.67 -0.02 0.02 0.03
684 15.64 8.45 -99.39 -0.20 -0.43 10.67 -0.02 0.03 0.03
685 15.64 8.45 -99.39 -0.24 -0.35 10.59 -0.03 0.03 0.03
686 15.64 8.45 -99.39 -0.24 -0.47 10.71 -0.03 0.03 0.03
687 15.64 8.45 -99.39 -0.27 -0.47 10.59 -0.03 0.03 0.03
688 15.64 8.64 -99.59 -0.24 -0.43 10.47 -0.02 0.03 0.03
689 15.45 8.64 -99.59 -0.24 -0.39 10.59 -0.02 0.02 0.03
690 15.45 8.64 -99.59 -0.24 -0.43 10.67 -0.02 0.03 0.03
691 15.45 8.64 -99.59 -0.24 -0.47 10.71 -0.03 0.03 0.03
692 15.45 8.64 -99.59 -0.24 -0.39 10.63 -0.02 0.03 0.02
693 15.45 8.64 -99.59 -0.27 -0.39 10.63 -0.02 0.03 0.02
694 15.45 8.64 -99.59 -0.27 -0.39 10.51 -0.02 0.02 0.03
695 15.27 8.36 -99.90 -0.31 -0.39 10.51 -0.03 0.03 0.03
696 15.27 8.36 -99.90 -0.20 -0.43 10.55 -0.02 0.03 0.02
697 15.27 8.36 -99.90 -0.12 -0.43 10.75 -0.02 0.03 0.03
698 15.27 8.36 -99.90 -0.27 -0.47 10.83 -0.02 0.03 0.03
699 15.27 8.36 -99.90 -0.12 -0.43 10.63 -0.02 0.02 0.03
700 15.27 8.36 -99.90 -0.16 -0.43 10.59 -0.02 0.03 0.03
701 15.27 8.36 -99.90 -0.31 -0.47 10.55 -0.02 0.03 0.02
702 15.55 8.55 -99.59 -0.20 -0.47 10.47 -0.03 0.03 0.03
703 15.55 8.55 -99.59 -0.08 -0.51 10.67 -0.02 0.03 0.02
704 15.55 8.55 -99.59 -0.20 -0.47 10.67 -0.02 0.02 0.03
705 15.55 8.55 -99.59 -0.24 -0.43 10.71 -0.02 0.03 0.03
706 15.55 8.55 -99.59 -0.20 -0.47 10.59 -0.02 0.03 0.02
707 15.55 8.55 -99.59 -0.27 -0.39 10.67 -0.02 0.03 0.02
708 15.55 8.55 -99.59 -0.24 -0.43 10.55 -0.02 0.03 0.03
709 15.64 8.45 -99.59 -0.27 -0.51 10.79 -0.02 0.03 0.02
710 15.64 8.45 -99.59 -0.24 -0.43 10.63 -0.02 0.03 0.02
711 15.64 8.45 -99.59 -0.20 -0.39 10.67 -0.02 0.03 0.03
712 15.64 8.45 -99.59 -0.27 -0.47 10.67 -0.03 0.03 0.02
713 15.64 8.45 -99.59 -0.24 -0.47 10.67 -0.02 0.03 0.03
714 15.64 8.45 -99.59 -0.27 -0.43 10.59 -0.02 0.02 0.02
715 15.64 8.45 -99.59 -0.24 -0.39 10.67 -0.02 0.02 0.03
716 15.73 8.18 -99.69 -0.27 -0.47 10.71 -0.02 0.03 0.02
717 15.73 8.18 -99.69 -0.24 -0.43 10.63 -0.02 0.03 0.02
718 15.73 8.18 -99.69 -0.27 -0.43 10.71 -0.02 0.03 0.03
719 15.73 8.18 -99.69 -0.27 -0.43 10.63 -0.02 0.03 0.02
720 15.73 8.18 -99.69 -0.27 -0.43 10.59 -0.02 0.02 0.02
721 15.73 8.18 -99.69 -0.20 -0.47 10.59 -0.02 0.03 0.02
722 15.73 8.55 -99.69 -0.27 -0.47 10.55 -0.02 0.03 0.02
723 15.27 8.55 -99.49 -0.31 -0.55 10.75 -0.02 0.03 0.03
724 15.27 8.55 -99.49 -0.20 -0.43 10.79 -0.02 0.03 0.02
725 15.27 8.55 -99.49 -0.27 -0.51 10.51 -0.02 0.02 0.03
726 15.27 8.55 -99.49 -0.20 -0.47 10.67 -0.02 0.02 0.03
727 15.27 8.55 -99.49 -0.24 -0.47 10.75 -0.02 0.03 0.03
728 15.27 8.55 -99.49 -0.24 -0.39 10.55 -0.02 0.03 0.03
729 16.00 8.18 -99.39 -0.24 -0.43 10.71 -0.02 0.03 0.03
730 16.00 8.18 -99.39 -0.20 -0.47 10.71 -0.02 0.02 0.03
731 16.00 8.18 -99.39 -0.24 -0.47 10.59 -0.02 0.02 0.03
732 16.00 8.18 -99.39 -0.24 -0.47 10.63 -0.02 0.03 0.02
733 16.00 8.18 -99.39 -0.24 -0.47 10.55 -0.02 0.03 0.02
734 16.00 8.18 -99.39 -0.27 -0.43 10.67 -0.02 0.03 0.03
735 16.00 8.18 -99.39 -0.24 -0.39 10.67 -0.02 0.02 0.03
736 15.45 8.27 -99.59 -0.27 -0.39 10.63 -0.02 0.02 0.03
737 15.45 8.27 -99.59 -0.20 -0.47 10.63 -0.02 0.02 0.03
738 15.45 8.27 -99.59 -0.24 -0.47 10.63 -0.02 0.03 0.03
739 15.45 8.27 -99.59 -0.27 -0.39 10.63 -0.02 0.03 0.03
740 15.45 8.27 -99.59 -0.27 -0.43 10.63 -0.02 0.02 0.04
741 15.45 8.27 -99.59 -0.20 -0.47 10.63 -0.02 0.03 0.02
742 15.45 8.27 -99.59 -0.24 -0.47 10.59 -0.02 0.03 0.03
743 15.45 8.36 -99.80 -0.27 -0.39 10.67 -0.02 0.03 0.04
744 15.45 8.36 -99.80 -0.24 -0.47 10.71 -0.02 0.03 0.03
745 15.45 8.36 -99.80 -0.24 -0.47 10.59 -0.02 0.03 0.03
746 15.45 8.36 -99.80 -0.24 -0.47 10.59 -0.02 0.03 0.03
747 15.45 8.36 -99.80 -0.24 -0.47 10.55 -0.02 0.02 0.04
748 15.45 8.36 -99.80 -0.24 -0.39 10.67 -0.02 0.03 0.03
749 15.45 8.36 -99.80 -0.35 -0.39 10.59 -0.02 0.03 0.04
750 15.45 8.09 -99.49 -0.27 -0.43 10.63 -0.02 0.03 0.03
751 15.45 8.09 -99.49 -0.27 -0.43 10.63 -0.02 0.03 0.03
752 15.45 8.09 -99.49 -0.24 -0.43 10.59 -0.02 0.03 0.03
753 15.45 8.09 -99.49 -0.24 -0.47 10.67 -0.02 0.03 0.03
754 15.45 8.09 -99.49 -0.27 -0.59 10.43 -0.02 0.03 0.03
755 15.45 8.09 -99.49 -0.24 -0.39 10.71 -0.02 0.03 0.03
756 15.45 8.09 -99.49 -0.35 -0.43 10.59 -0.02 0.03 0.03
757 15.45 8.09 -99.49 -0.27 -0.39 10.59 -0.02 0.02 0.03
758 15.45 8.09 -99.49 -0.20 -0.43 10.59 -0.02 0.03 0.03
759 15.45 8.09 -99.49 -0.24 -0.47 10.67 -0.02 0.03 0.04
760 15.45 8.09 -99.49 -0.20 -0.43 10.67 -0.02 0.03 0.03
761 15.45 8.09 -99.49 -0.20 -0.43 10.63 -0.02 0.02 0.03
762 15.45 8.09 -99.49 -0.24 -0.51 10.67 -0.02 0.02 0.03
763 15.55 8.27 -99.18 -0.20 -0.39 10.67 -0.02 0.02 0.04
764 15.55 8.27 -99.18 -0.24 -0.47 10.63 -0.02 0.03 0.04
765 15.55 8.27 -99.18 -0.24 -0.43 10.59 -0.02 0.03 0.04
766 15.55 8.27 -99.18 -0.24 -0.47 10.67 -0.02 0.03 0.04
767 15.55 8.27 -99.18 -0.20 -0.47 10.67 -0.02 0.02 0.03
768 15.55 8.27 -99.18 -0.20 -0.47 10.63 -0.02 0.02 0.03
769 15.55 8.27 -99.18 -0.24 -0.43 10.67 -0.02 0.03 0.02
770 15.27 8.45 -99.39 -0.39 -0.51 10.63 -0.02 0.03 0.03
771 15.27 8.45 -99.39 -0.39 -0.35 10.63 -0.03 0.03 0.04
772 15.27 8.45 -99.39 -0.31 -0.39 10.63 -0.02 0.02 0.03
773 15.27 8.45 -99.39 -0.20 -0.47 10.71 -0.02 0.02 0.02
774 15.27 8.45 -99.39 -0.27 -0.35 10.67 -0.02 0.02 0.02
775 15.27 8.45 -99.39 -0.31 -0.39 10.40 -0.02 0.02 0.03
776 15.27 8.45 -99.39 -0.24 -0.39 10.75 -0.03 0.03 0.03
777 15.36 8.45 -99.59 -0.27 -0.39 10.79 -0.03 0.03 0.03
778 15.36 8.45 -99.59 -0.24 -0.43 10.71 -0.02 0.03 0.02
779 15.36 8.45 -99.59 -0.20 -0.43 10.79 -0.02 0.02 0.02
780 15.36 8.45 -99.59 -0.31 -0.47 10.55 -0.02 0.03 0.03
781 15.36 8.45 -99.59 -0.27 -0.43 10.59 -0.03 0.03 0.03
782 15.36 8.45 -99.59 -0.20 -0.43 10.71 -0.02 0.03 0.03
783 15.36 8.45 -99.59 -0.24 -0.43 10.67 -0.02 0.02 0.03
784 15.36 8.36 -99.29 -0.27 -0.43 10.59 -0.02 0.02 0.03
785 15.36 8.36 -99.29 -0.24 -0.55 10.63 -0.02 0.03 0.03
786 15.36 8.36 -99.29 -0.31 -0.51 10.71 -0.02 0.03 0.03
787 15.36 8.36 -99.29 -0.24 -0.39 10.67 -0.03 0.03 0.03
788 15.36 8.36 -99.29 -0.24 -0.43 10.59 -0.02 0.03 0.03
789 15.36 8.36 -99.29 -0.27 -0.47 10.79 -0.02 0.02 0.03
790 15.36 8.36 -99.29 -0.24 -0.47 10.67 -0.02 0.03 0.02
791 15.36 8.36 -99.29 -0.27 -0.51 10.75 -0.02 0.03 0.03
792 15.36 8.36 -99.29 -0.27 -0.51 10.67 -0.02 0.03 0.03
793 15.36 8.36 -99.29 -0.27 -0.51 10.59 -0.02 0.03 0.03
794 15.36 8.36 -99.29 -0.16 -0.43 10.59 -0.02 0.03 0.03
795 15.36 8.36 -99.29 -0.24 -0.47 10.63 -0.02 0.02 0.04
796 15.36 8.36 -99.29 -0.24 -0.47 10.59 -0.02 0.03 0.03
797 15.18 8.55 -99.29 -0.24 -0.47 10.59 -0.03 0.03 0.04
798 15.18 8.55 -99.29 -0.27 -0.39 10.59 -0.03 0.03 0.04
799 15.18 8.55 -99.29 -0.20 -0.43 10.71 -0.02 0.03 0.02
800 15.18 8.55 -99.29 -0.24 -0.39 10.71 -0.02 0.02 0.02
801 15.18 8.55 -99.29 -0.24 -0.43 10.75 -0.02 0.03 0.03
802 15.18 8.55 -99.29 -0.20 -0.43 10.67 -0.03 0.03 0.03
803 15.18 8.55 -99.29 -0.31 -0.43 10.63 -0.03 0.03 0.03
804 15.55 8.36 -99.59 -0.20 -0.47 10.55 -0.03 0.03 0.03
805 15.55 8.36 -99.59 -0.31 -0.39 10.59 -0.02 0.02 0.03
806 15.55 8.36 -99.59 -0.27 -0.47 10.63 -0.02 0.02 0.03
807 15.55 8.36 -99.59 -0.20 -0.43 10.63 -0.02 0.03 0.03
808 15.55 8.36 -99.59 -0.20 -0.47 10.63 -0.03 0.03 0.03
809 15.55 8.36 -99.59 -0.27 -0.43 10.59 -0.02 0.03 0.03
810 15.55 8.36 -99.59 -0.20 -0.51 10.71 -0.02 0.02 0.02
811 15.09 8.27 -99.49 -0.27 -0.43 10.67 -0.02 0.02 0.03
812 15.09 8.27 -99.49 -0.24 -0.39 10.63 -0.02 0.03 0.03
813 15.09 8.27 -99.49 -0.24 -0.43 10.67 -0.02 0.03 0.03
814 15.09 8.27 -99.49 -0.16 -0.39 10.63 -0.02 0.04 0.02
815 15.09 8.27 -99.49 -0.27 -0.43 10.67 -0.02 0.03 0.02
816 15.09 8.27 -99.49 -0.27 -0.47 10.67 -0.02 0.02 0.03
817 15.09 8.27 -99.49 -0.20 -0.43 10.67 -0.02 0.02 0.02
818 15.18 8.36 -99.39 -0.24 -0.43 10.59 -0.02 0.03 0.02
819 15.18 8.36 -99.39 -0.27 -0.39 10.63 -0.03 0.03 0.03
820 15.18 8.36 -99.39 -0.27 -0.47 10.59 -0.02 0.03 0.03
821 15.18 8.36 -99.39 -0.24 -0.43 10.67 -0.02 0.02 0.03
822 15.18 8.36 -99.39 -0.24 -0.51 10.55 -0.02 0.02 0.03
823 15.18 8.36 -99.39 -0.27 -0.51 10.55 -0.02 0.03 0.03
824 15.18 8.36 -99.39 -0.20 -0.47 10.59 -0.02 0.03 0.03
825 15.18 8.36 -99.39 -0.24 -0.47 10.83 -0.02 0.03 0.02
826 15.18 8.36 -99.39 -0.24 -0.39 10.63 -0.02 0.02 0.02
827 15.18 8.36 -99.39 -0.35 -0.47 10.67 -0.02 0.02 0.02
828 15.18 8.36 -99.39 -0.24 -0.55 10.59 -0.02 0.03 0.02
829 15.18 8.36 -99.39 -0.27 -0.35 10.71 -0.02 0.03 0.03
830 15.18 8.36 -99.39 -0.27 -0.47 10.67 -0.02 0.03 0.03
831 15.18 8.64 -99.39 -0.16 -0.51 10.63 -0.02 0.02 0.03
832 15.18 8.64 -99.39 -0.27 -0.35 10.63 -0.02 0.02 0.03
833 15.18 8.64 -99.39 -0.24 -0.43 10.59 -0.02 0.02 0.03
834 15.18 8.64 -99.39 -0.31 -0.47 10.59 -0.02 0.03 0.03
835 15.18 8.64 -99.39 -0.24 -0.43 10.71 -0.02 0.03 0.02
836 15.18 8.64 -99.39 -0.27 -0.47 10.71 -0.02 0.03 0.03
837 15.18 8.64 -99.39 -0.27 -0.43 10.63 -0.02 0.02 0.02
838 15.36 8.36 -99.59 -0.24 -0.47 10.59 -0.02 0.02 0.02
839 15.36 8.36 -99.59 -0.35 -0.39 10.67 -0.02 0.03 0.03
840 15.36 8.36 -99.59 -0.24 -0.43 10.63 -0.02 0.03 0.03
841 15.36 8.36 -99.59 -0.24 -0.39 10.63 -0.02 0.03 0.04
842 15.36 8.36 -99.59 -0.24 -0.43 10.59 -0.03 0.03 0.04
843 15.36 8.36 -99.59 -0.24 -0.47 10.63 -0.02 0.02 0.02
844 15.36 8.36 -99.59 -0.24 -0.43 10.63 -0.02 0.02 0.03
845 15.55 8.36 -99.08 -0.27 -0.43 10.71 -0.02 0.03 0.02
846 15.55 8.36 -99.08 -0.27 -0.43 10.59 -0.02 0.03 0.02
847 15.55 8.36 -99.08 -0.20 -0.47 10.67 -0.02 0.03 0.03
848 15.55 8.36 -99.08 -0.20 -0.39 10.71 -0.02 0.02 0.03
849 15.55 8.36 -99.08 -0.24 -0.39 10.71 -0.02 0.02 0.04
850 15.55 8.36 -99.08 -0.20 -0.51 10.55 -0.02 0.03 0.03
851 15.55 8.36 -99.08 -0.24 -0.47 10.51 -0.02 0.03 0.03
852 15.73 8.45 -99.39 -0.27 -0.43 10.59 -0.02 0.03 0.02
853 15.73 8.45 -99.39 -0.24 -0.43 10.75 -0.02 0.03 0.03
854 15.73 8.45 -99.39 -0.27 -0.47 10.71 -0.02 0.02 0.03
855 15.73 8.45 -99.39 -0.27 -0.39 10.75 -0.02 0.02 0.03
856 15.73 8.45 -99.39 -0.20 -0.51 10.75 -0.02 0.03 0.03
857 15.73 8.45 -99.39 -0.24 -0.47 10.79 -0.02 0.03 0.03
858 15.73 8.45 -99.39 -0.20 -0.43 10.83 -0.02 0.03 0.03
859 15.73 8.45 -99.39 -0.31 -0.47 10.67 -0.02 0.02 0.02
860 15.73 8.45 -99.39 -0.24 -0.43 10.63 -0.02 0.03 0.02
861 15.73 8.45 -99.39 -0.27 -0.43 10.67 -0.02 0.03 0.02
862 15.73 8.45 -99.39 -0.24 -0.43 10.67 -0.02 0.03 0.03
863 15.73 8.45 -99.39 -0.24 -0.51 10.63 -0.02 0.03 0.03
864 15.73 8.45 -99.39 -0.20 -0.43 10.67 -0.02 0.02 0.03
865 15.55 8.45 -99.80 -0.24 -0.43 10.71 -0.02 0.03 0.02
866 15.55 8.45 -99.80 -0.24 -0.39 10.63 -0.02 0.03 0.02
867 15.55 8.45 -99.80 -0.31 -0.47 10.55 -0.02 0.03 0.03
868 15.55 8.45 -99.80 -0.27 -0.51 10.71 -0.02 0.03 0.04
869 15.55 8.45 -99.80 -0.27 -0.47 10.71 -0.02 0.02 0.04
870 15.55 8.45 -99.80 -0.27 -0.43 10.71 -0.02 0.02 0.03
871 15.55 8.45 -99.80 -0.20 -0.47 10.59 -0.02 0.03 0.03
872 15.55 8.27 -99.39 -0.20 -0.55 10.71 -0.02 0.03 0.04
873 15.55 8.27 -99.39 -0.24 -0.43 10.63 -0.02 0.03 0.03
874 15.55 8.27 -99.39 -0.24 -0.43 10.51 -0.02 0.03 0.03
875 15.55 8.27 -99.39 -0.24 -0.43 10.51 -0.02 0.02 0.04
876 15.55 8.27 -99.39 -0.20 -0.39 10.79 -0.02 0.03 0.03
877 15.55 8.27 -99.39 -0.31 -0.43 10.71 -0.02 0.03 0.04
878 15.55 8.27 -99.39 -0.20 -0.39 10.87 -0.02 0.03 0.04
879 15.55 8.18 -99.59 -0.31 -0.43 10.67 -0.02 0.03 0.03
880 15.55 8.18 -99.59 -0.27 -0.51 10.83 -0.02 0.03 0.03
881 15.55 8.18 -99.59 -0.20 -0.35 10.79 -0.02 0.02 0.03
882 15.55 8.18 -99.59 -0.08 -0.43 10.75 -0.02 0.02 0.03
883 15.55 8.18 -99.59 -0.27 -0.47 10.51 -0.02 0.03 0.02
884 15.55 8.18 -99.59 -0.20 -0.43 10.51 -0.03 0.03 0.04
885 15.55 8.18 -99.59 -0.20 -0.43 10.63 -0.02 0.03 0.03
886 15.45 8.36 -99.59 -0.24 -0.35 10.40 -0.02 0.02 0.03
887 15.45 8.36 -99.59 -0.27 -0.43 10.63 -0.02 0.03 0.02
888 15.45 8.36 -99.59 -0.24 -0.47 10.59 -0.02 0.03 0.03
889 15.45 8.36 -99.59 -0.27 -0.43 10.67 -0.02 0.03 0.03
890 15.45 8.36 -99.59 -0.27 -0.47 10.59 -0.02 0.03 0.03
891 15.45 8.36 -99.59 -0.24 -0.43 10.63 -0.02 0.02 0.03
892 15.45 8.36 -99.59 -0.27 -0.47 10.59 -0.03 0.02 0.04
893 15.73 8.55 -99.80 -0.20 -0.47 10.59 -0.02 0.03 0.03
894 15.73 8.55 -99.80 -0.27 -0.39 10.67 -0.02 0.03 0.04
895 15.73 8.55 -99.80 -0.24 -0.39 10.67 -0.02 0.03 0.03
896 15.73 8.55 -99.80 -0.24 -0.47 10.67 -0.02 0.02 0.04
897 15.73 8.55 -99.80 -0.27 -0.43 10.63 -0.02 0.02 0.03
898 15.73 8.55 -99.80 -0.27 -0.47 10.63 -0.02 0.03 0.03
899 15.73 8.09 -99.49 -0.35 -0.39 10.71 -0.02 0.03 0.03
900 15.73 8.09 -99.49 -0.35 -0.39 10.71 -0.02 0.03 0.04
901 15.73 8.09 -99.49 -0.24 -0.43 10.71 -0.03 0.03 0.04
902 15.73 8.09 -99.49 -0.27 -0.39 10.83 -0.02 0.02 0.03
903 15.73 8.09 -99.49 -0.27 -0.47 10.59 -0.02 0.02 0.04
904 15.73 8.09 -99.49 -0.20 -0.47 10.71 -0.02 0.03 0.03
905 15.73 8.09 -99.49 -0.27 -0.35 10.67 -0.03 0.03 0.03
906 15.64 8.45 -99.49 -0.27 -0.43 10.79 -0.03 0.03 0.03
907 15.64 8.45 -99.49 -0.24 -0.51 10.67 -0.02 0.03 0.03
908 15.64 8.45 -99.49 -0.31 -0.35 10.63 -0.02 0.03 0.03
909 15.64 8.45 -99.49 -0.24 -0.47 10.71 -0.02 0.03 0.03
910 15.64 8.45 -99.49 -0.27 -0.43 10.71 -0.03 0.03 0.03
911 15.64 8.45 -99.49 -0.27 -0.47 10.63 -0.03 0.03 0.03
912 15.64 8.45 -99.49 -0.27 -0.47 10.63 -0.02 0.03 0.02
913 15.45 8.45 -99.49 -0.24 -0.39 10.75 -0.02 0.02 0.04
914 15.45 8.45 -99.49 -0.24 -0.51 10.67 -0.02 0.03 0.03
915 15.45 8.45 -99.49 -0.31 -0.43 10.55 -0.02 0.03 0.03
916 15.45 8.45 -99.49 -0.27 -0.39 10.63 -0.02 0.03 0.03
917 15.45 8.45 -99.49 -0.27 -0.43 10.59 -0.02 0.03 0.03
918 15.45 8.45 -99.49 -0.24 -0.43 10.71 -0.02 0.03 0.03
919 15.45 8.45 -99.49 -0.20 -0.47 10.67 -0.02 0.03 0.03
920 15.36 8.45 -99.59 -0.24 -0.47 10.63 -0.02 0.03 0.03
921 15.36 8.45 -99.59 -0.27 -0.43 10.63 -0.02 0.03 0.02
922 15.36 8.45 -99.59 -0.27 -0.47 10.67 -0.03 0.03 0.03
923 15.36 8.45 -99.59 -0.20 -0.43 10.71 -0.02 0.02 0.03
924 15.36 8.45 -99.59 -0.20 -0.47 10.59 -0.02 0.02 0.03
925 15.36 8.45 -99.59 -0.27 -0.47 10.51 -0.03 0.03 0.03
926 15.36 8.45 -99.59 -0.27 -0.47 10.51 -0.02 0.03 0.02
927 15.36 8.45 -99.59 -0.27 -0.43 10.51 -0.02 0.03 0.02
928 15.36 8.45 -99.59 -0.27 -0.43 10.79 -0.02 0.03 0.02
929 15.36 8.45 -99.59 -0.16 -0.43 10.71 -0.02 0.03 0.02
930 15.36 8.45 -99.59 -0.16 -0.51 10.59 -0.02 0.03 0.02
931 15.36 8.45 -99.59 -0.35 -0.47 10.59 -0.02 0.03 0.03
932 15.36 8.45 -99.59 -0.27 -0.43 10.63 -0.03 0.03 0.03
933 15.55 8.36 -99.69 -0.35 -0.43 10.67 -0.02 0.03 0.02
934 15.55 8.36 -99.69 -0.24 -0.43 10.67 -0.02 0.02 0.02
935 15.55 8.36 -99.69 -0.27 -0.43 10.51 -0.02 0.02 0.02
936 15.55 8.36 -99.69 -0.24 -0.39 10.67 -0.02 0.03 0.02
937 15.55 8.36 -99.69 -0.24 -0.51 10.63 -0.02 0.03 0.03
938 15.55 8.36 -99.69 -0.27 -0.39 10.63 -0.02 0.03 0.03
939 15.55 8.36 -99.69 -0.27 -0.43 10.71 -0.03 0.03 0.02
940 15.45 8.55 -99.18 -0.24 -0.43 10.63 -0.02 0.02 0.03
941 15.45 8.55 -99.18 -0.24 -0.47 10.55 -0.02 0.03 0.02
942 15.45 8.55 -99.18 -0.24 -0.39 10.59 -0.02 0.03 0.03
943 15.45 8.55 -99.18 -0.27 -0.43 10.63 -0.02 0.03 0.02
944 15.45 8.55 -99.18 -0.27 -0.43 10.67 -0.02 0.03 0.03
945 15.45 8.55 -99.18 -0.24 -0.39 10.67 -0.02 0.02 0.02
946 15.45 8.55 -99.18 -0.27 -0.39 10.67 -0.02 0.03 0.02
947 15.18 8.36 -99.39 -0.24 -0.43 10.63 -0.02 0.03 0.02
948 15.18 8.36 -99.39 -0.24 -0.43 10.63 -0.02 0.03 0.02
949 15.18 8.36 -99.39 -0.24 -0.39 10.63 -0.03 0.03 0.02
950 15.18 8.36 -99.39 -0.20 -0.43 10.63 -0.02 0.03 0.02
951 15.18 8.36 -99.39 -0.27 -0.51 10.59 -0.02 0.02 0.02
952 15.18 8.36 -99.39 -0.27 -0.51 10.75 -0.02 0.03 0.02
953 15.18 8.36 -99.39 -0.27 -0.43 10.79 -0.03 0.03 0.02
954 15.45 8.18 -99.18 -0.35 -0.47 10.51 -0.02 0.03 0.02
955 15.45 8.18 -99.18 -0.27 -0.51 10.43 -0.02 0.03 0.02
956 15.45 8.18 -99.18 -0.27 -0.43 10.75 -0.02 0.02 0.02
957 15.45 8.18 -99.18 -0.35 -0.43 10.59 -0.02 0.02 0.02
958 15.45 8.18 -99.18 -0.27 -0.47 10.79 -0.02 0.03 0.02
959 15.45 8.18 -99.18 -0.24 -0.39 10.71 -0.02 0.03 0.03
960 15.45 8.18 -99.18 -0.27 -0.47 10.55 -0.02 0.03 0.03
961 15.18 8.73 -99.39 -0.27 -0.59 10.51 -0.02 0.03 0.03
962 15.18 8.73 -99.39 -0.20 -0.39 10.67 -0.02 0.03 0.02
963 15.18 8.73 -99.39 -0.31 -0.47 10.67 -0.02 0.03 0.02
964 15.18 8.73 -99.39 -0.24 -0.51 10.67 -0.02 0.03 0.03
965 15.18 8.73 -99.39 -0.27 -0.43 10.59 -0.02 0.03 0.03
966 15.18 8.73 -99.39 -0.24 -0.43 10.59 -0.02 0.03 0.03
967 15.18 8.27 -98.98 -0.27 -0.43 10.67 -0.02 0.02 0.03
968 15.18 8.27 -98.98 -0.24 -0.47 10.63 -0.02 0.03 0.03
969 15.18 8.27 -98.98 -0.27 -0.47 10.63 -0.02 0.03 0.03
970 15.18 8.27 -98.98 -0.27 -0.47 10.59 -0.02 0.03 0.03
971 15.18 8.27 -98.98 -0.27 -0.43 10.59 -0.02 0.03 0.03
972 15.18 8.27 -98.98 -0.16 -0.43 10.59 -0.02 0.02 0.02
973 15.18 8.27 -98.98 -0.24 -0.43 10.59 -0.02 0.02 0.02
974 15.45 8.45 -99.08 -0.31 -0.51 10.67 -0.02 0.03 0.03
975 15.45 8.45 -99.08 -0.24 -0.39 10.63 -0.02 0.03 0.03
976 15.45 8.45 -99.08 -0.24 -0.39 10.67 -0.02 0.03 0.03
977 15.45 8.45 -99.08 -0.24 -0.47 10.71 -0.02 0.03 0.03
978 15.45 8.45 -99.08 -0.20 -0.47 10.71 -0.02 0.02 0.03
979 15.45 8.45 -99.08 -0.31 -0.43 10.59 -0.02 0.02 0.03
980 15.45 8.45 -99.08 -0.24 -0.43 10.71 -0.02 0.03 0.03
981 15.27 8.45 -99.39 -0.20 -0.47 10.79 -0.03 0.03 0.03
982 15.27 8.45 -99.39 -0.20 -0.47 10.67 -0.02 0.03 0.03
983 15.27 8.45 -99.39 -0.31 -0.39 10.63 -0.02 0.02 0.04
984 15.27 8.45 -99.39 -0.24 -0.43 10.63 -0.02 0.02 0.04
985 15.27 8.45 -99.39 -0.27 -0.55 10.75 -0.02 0.03 0.03
986 15.27 8.45 -99.39 -0.24 -0.51 10.79 -0.02 0.03 0.03
987 15.27 8.45 -99.39 -0.20 -0.39 10.75 -0.02 0.03 0.04
988 15.27 8.45 -99.39 -0.16 -0.43 10.67 -0.02 0.02 0.04
989 15.27 8.45 -99.39 -0.24 -0.47 10.67 -0.02 0.02 0.04
990 15.27 8.45 -99.39 -0.20 -0.51 10.67 -0.02 0.02 0.04
991 15.27 8.45 -99.39 -0.24 -0.47 10.63 -0.02 0.03 0.03
992 15.27 8.45 -99.39 -0.27 -0.47 10.75 -0.02 0.03 0.03
993 15.27 8.45 -99.39 -0.24 -0.43 10.71 -0.02 0.02 0.03
994 15.27 8.45 -99.39 -0.27 -0.47 10.55 -0.02 0.02 0.03
995 15.27 8.91 -99.49 -0.20 -0.43 10.71 -0.02 0.02 0.02
996 15.27 8.91 -99.49 -0.24 -0.43 10.67 -0.02 0.03 0.02
997 15.27 8.91 -99.49 -0.20 -0.43 10.63 -0.03 0.03 0.03
998 15.27 8.91 -99.49 -0.20 -0.39 10.67 -0.02 0.03 0.02
999 15.27 8.91 -99.49 -0.31 -0.43 10.59 -0.02 0.02 0.03
1000 15.27 8.91 -99.49 -0.16 -0.39 10.59 -0.02 0.02 0.04
1001 15.36 8.73 -99.49 -0.16 -0.35 10.67 -0.02 0.03 0.04
1002 15.36 8.73 -99.49 -0.27 -0.47 10.67 -0.03 0.03 0.03
1003 15.36 8.73 -99.49 -0.24 -0.43 10.67 -0.02 0.03 0.03
1004 15.36 8.73 -99.49 -0.24 -0.47 10.59 -0.02 0.02 0.04
1005 15.36 8.73 -99.49 -0.24 -0.47 10.51 -0.02 0.02 0.03
1006 15.36 8.73 -99.49 -0.20 -0.47 10.71 -0.02 0.02 0.03
1007 15.36 8.73 -99.49 -0.20 -0.51 10.71 -0.02 0.03 0.03
1008 15.64 8.45 -99.39 -0.24 -0.47 10.71 -0.03 0.03 0.03
1009 15.64 8.45 -99.39 -0.35 -0.47 10.75 -0.03 0.03 0.03
1010 15.64 8.45 -99.39 -0.27 -0.43 10.55 -0.02 0.02 0.03
1011 15.64 8.45 -99.39 -0.24 -0.43 10.51 -0.02 0.03 0.03
1012 15.64 8.45 -99.39 -0.20 -0.47 10.75 -0.02 0.03 0.03
1013 15.64 8.45 -99.39 -0.31 -0.39 10.75 -0.03 0.03 0.03
1014 15.64 8.45 -99.39 -0.31 -0.47 10.55 -0.03 0.03 0.03
1015 15.55 8.36 -99.39 -0.24 -0.43 10.71 -0.02 0.02 0.03
1016 15.55 8.36 -99.39 -0.24 -0.39 10.47 -0.02 0.02 0.03
1017 15.55 8.36 -99.39 -0.27 -0.47 10.67 -0.02 0.02 0.03
1018 15.55 8.36 -99.39 -0.20 -0.47 10.75 -0.03 0.03 0.03
1019 15.55 8.36 -99.39 -0.24 -0.47 10.71 -0.03 0.03 0.03
1020 15.55 8.36 -99.39 -0.35 -0.39 10.63 -0.02 0.03 0.03
1021 15.45 8.55 -99.59 -0.31 -0.47 10.55 -0.02 0.02 0.03
1022 15.45 8.55 -99.59 -0.24 -0.35 10.71 -0.02 0.03 0.02
1023 15.45 8.55 -99.59 -0.16 -0.47 10.59 -0.02 0.03 0.03
1024 15.45 8.55 -99.59 -0.27 -0.39 10.63 -0.02 0.03 0.03
1025 15.45 8.55 -99.59 -0.27 -0.43 10.63 -0.02 0.03 0.03
1026 15.45 8.55 -99.59 -0.27 -0.47 10.63 -0.02 0.02 0.03
1027 15.45 8.55 -99.59 -0.24 -0.51 10.55 -0.02 0.03 0.03
1028 15.55 8.36 -99.69 -0.27 -0.43 10.63 -0.02 0.03 0.04
1029 15.55 8.36 -99.69 -0.24 -0.43 10.59 -0.02 0.03 0.04
1030 15.55 8.36 -99.69 -0.24 -0.47 10.63 -0.02 0.03 0.03
1031 15.55 8.36 -99.69 -0.20 -0.51 10.63 -0.02 0.02 0.04
1032 15.55 8.36 -99.69 -0.24 -0.47 10.67 -0.02 0.02 0.03
1033 15.55 8.36 -99.69 -0.27 -0.47 10.63 -0.02 0.03 0.02
1034 15.55 8.36 -99.69 -0.27 -0.43 10.63 -0.02 0.03 0.03
1035 15.64 8.27 -99.69 -0.24 -0.47 10.67 -0.02 0.03 0.02
1036 15.64 8.27 -99.69 -0.24 -0.51 10.71 -0.02 0.03 0.03
1037 15.64 8.27 -99.69 -0.20 -0.39 10.67 -0.02 0.03 0.03
1038 15.64 8.27 -99.69 -0.27 -0.43 10.59 -0.02 0.03 0.03
1039 15.64 8.27 -99.69 -0.27 -0.43 10.55 -0.02 0.03 0.05
1040 15.64 8.27 -99.69 -0.24 -0.43 10.63 -0.03 0.03 0.05
1041 15.45 8.36 -99.80 -0.24 -0.47 10.63 -0.02 0.03 0.04
1042 15.45 8.36 -99.80 -0.20 -0.47 10.59 -0.02 0.03 0.02
1043 15.45 8.36 -99.80 -0.24 -0.39 10.63 -0.02 0.03 0.03
1044 15.45 8.36 -99.80 -0.24 -0.51 10.59 -0.03 0.03 0.04
1045 15.45 8.36 -99.80 -0.24 -0.43 10.67 -0.02 0.03 0.03
1046 15.45 8.36 -99.80 -0.24 -0.47 10.51 -0.02 0.03 0.02
1047 15.45 8.36 -99.80 -0.27 -0.43 10.71 -0.02 0.02 0.03
1048 15.36 8.27 -99.39 -0.24 -0.47 10.55 -0.02 0.03 0.03
1049 15.36 8.27 -99.39 -0.24 -0.43 10.71 -0.03 0.03 0.03
1050 15.36 8.27 -99.39 -0.20 -0.51 10.79 -0.02 0.03 0.03
1051 15.36 8.27 -99.39 -0.20 -0.43 10.59 -0.02 0.03 0.03
1052 15.36 8.27 -99.39 -0.24 -0.43 10.75 -0.02 0.03 0.03
1053 15.36 8.27 -99.39 -0.31 -0.35 10.67 -0.02 0.02 0.03
1054 15.36 8.27 -99.39 -0.20 -0.47 10.51 -0.02 0.03 0.03
1055 15.64 8.27 -99.69 -0.20 -0.43 10.71 -0.02 0.03 0.03
1056 15.64 8.27 -99.69 -0.24 -0.39 10.67 -0.02 0.03 0.03
1057 15.64 8.27 -99.69 -0.16 -0.43 10.71 -0.02 0.03 0.03
1058 15.64 8.27 -99.69 -0.27 -0.51 10.55 -0.02 0.03 0.03
1059 15.64 8.27 -99.69 -0.24 -0.35 10.63 -0.02 0.03 0.02
1060 15.64 8.27 -99.69 -0.31 -0.47 10.59 -0.02 0.03 0.02
1061 15.64 8.55 -99.39 -0.24 -0.51 10.67 -0.02 0.03 0.03
