SampleNumber MagX MagY MagZ AccX AccY AccZ GyroX GyroY GyroZ
1 -18.55 -7.18 -95.71 0.67 -0.94 10.83 -3.22 -3.46 0.32
2 -18.18 -7.36 -96.33 0.67 -0.94 10.71 2.76 3.64 -0.23
3 -18.18 -7.36 -96.33 0.59 -0.82 10.71 2.75 3.64 -0.23
4 -18.18 -7.36 -96.33 0.59 -0.94 10.67 -1.34 0.38 0.93
5 -18.18 -7.36 -96.33 0.71 -0.90 10.75 -1.56 0.38 0.83
6 -18.18 -7.36 -96.33 0.59 -0.82 10.43 0.03 0.08 0.23
7 -18.18 -7.36 -96.33 0.63 -0.90 10.51 0.03 0.05 -0.31
8 -18.18 -7.36 -96.33 0.78 -0.94 10.59 -0.10 0.07 -0.04
9 -18.18 -7.36 -96.12 0.82 -1.06 10.55 0.04 0.03 0.17
10 -18.18 -7.36 -96.12 0.75 -0.98 10.55 0.04 0.02 -0.00
11 -18.18 -7.36 -96.12 0.71 -1.02 10.75 0.04 0.02 -0.00
12 -18.18 -7.36 -96.12 0.71 -1.02 10.63 -0.03 0.03 0.01
13 -18.18 -7.36 -96.12 0.63 -1.06 10.63 -0.04 0.03 0.03
14 -18.18 -7.36 -96.12 0.71 -0.90 10.67 -0.05 0.03 0.01
15 -18.18 -7.36 -96.12 0.71 -0.94 10.55 -0.05 0.03 0.02
16 -18.45 -7.18 -96.22 0.71 -0.90 10.59 -0.03 0.03 0.03
17 -18.45 -7.18 -96.22 0.75 -0.90 10.71 0.00 0.03 0.03
18 -18.45 -7.18 -96.22 0.71 -0.98 10.59 0.02 0.02 0.07
19 -18.45 -7.18 -96.22 0.63 -1.02 10.71 0.01 0.01 0.07
20 -18.45 -7.18 -96.22 0.63 -1.02 10.83 0.01 0.01 0.07
21 -18.45 -7.18 -96.22 0.71 -0.98 10.75 -0.00 0.02 0.06
22 -18.45 -7.18 -96.22 0.71 -0.98 10.71 -0.00 0.03 0.04
23 -18.27 -7.27 -95.82 0.75 -0.98 10.71 0.01 0.03 0.04
24 -18.27 -7.27 -95.82 0.67 -0.90 10.47 0.02 0.04 0.04
25 -18.27 -7.27 -95.82 0.71 -0.94 10.55 0.02 0.03 0.05
26 -18.27 -7.27 -95.82 0.71 -0.98 10.63 0.01 0.03 0.04
27 -18.27 -7.27 -95.82 0.59 -0.98 10.55 -0.00 0.03 0.05
28 -18.27 -7.27 -95.82 0.67 -0.94 10.67 -0.01 0.03 0.05
29 -18.27 -7.27 -95.82 0.59 -0.94 10.47 -0.01 0.03 0.05
30 -18.18 -7.09 -96.22 0.63 -1.02 10.67 -0.01 0.04 0.05
31 -18.18 -7.09 -96.22 0.59 -0.86 10.55 -0.02 0.04 0.05
32 -18.18 -7.09 -96.22 0.59 -0.98 10.51 -0.01 0.04 0.04
33 -18.18 -7.09 -96.22 0.59 -0.98 10.51 -0.02 0.02 0.04
34 -18.18 -7.09 -96.22 0.63 -0.86 10.51 -0.04 0.01 0.03
35 -18.18 -7.09 -96.22 0.59 -0.86 10.79 -0.05 0.01 0.02
36 -18.18 -7.36 -95.82 0.59 -0.90 10.79 -0.04 0.01 0.03
37 -18.18 -7.36 -95.82 0.63 -0.94 10.83 -0.02 0.01 0.03
38 -18.18 -7.36 -95.82 0.67 -0.90 10.75 -0.02 0.02 0.03
39 -18.18 -7.36 -95.82 0.71 -0.90 10.71 -0.02 0.02 0.03
40 -18.18 -7.36 -95.82 0.71 -0.82 10.79 -0.01 0.03 0.02
41 -18.18 -7.36 -95.82 0.71 -0.90 10.79 -0.02 0.04 0.01
42 -18.18 -7.36 -95.82 0.71 -0.90 10.67 -0.03 0.04 -0.00
43 -18.45 -7.55 -96.12 0.71 -1.02 10.59 -0.02 0.04 0.01
44 -18.45 -7.55 -96.12 0.75 -0.98 10.55 0.00 0.05 0.02
45 -18.45 -7.55 -96.12 0.75 -0.98 10.51 0.02 0.04 0.01
46 -18.45 -7.55 -96.12 0.75 -0.98 10.67 0.02 0.03 0.01
47 -18.45 -7.55 -96.12 0.78 -0.98 10.67 0.00 0.03 0.03
48 -18.45 -7.55 -96.12 0.82 -1.02 10.71 0.00 0.03 0.03
49 -18.45 -7.55 -96.12 0.75 -0.94 10.87 -0.01 0.02 0.02
50 -18.64 -7.45 -95.82 0.75 -0.90 10.71 -0.03 0.01 0.01
51 -18.64 -7.45 -95.82 0.75 -0.90 10.79 -0.03 0.01 0.02
52 -18.64 -7.45 -95.82 0.75 -0.94 10.67 -0.02 0.02 0.02
53 -18.64 -7.45 -95.82 0.67 -0.86 10.75 -0.02 0.02 0.02
54 -18.64 -7.45 -95.82 0.71 -0.98 10.47 -0.03 0.03 0.01
55 -18.64 -7.45 -95.82 0.67 -1.02 10.59 -0.02 0.03 0.01
56 -18.64 -7.45 -95.82 0.75 -0.98 10.55 -0.02 0.03 0.02
57 -18.55 -7.55 -96.02 0.63 -0.90 10.71 -0.02 0.03 0.03
58 -18.55 -7.55 -96.02 0.59 -0.94 10.63 -0.03 0.02 0.03
59 -18.55 -7.55 -96.02 0.55 -0.98 10.55 -0.02 0.02 0.04
60 -18.55 -7.55 -96.02 0.59 -0.98 10.71 -0.02 0.02 0.05
61 -18.55 -7.55 -96.02 0.71 -0.82 10.63 -0.03 0.01 0.03
62 -18.55 -7.55 -96.02 0.63 -0.90 10.71 -0.01 0.01 0.02
63 -18.55 -7.55 -96.02 0.63 -0.90 10.71 0.02 0.01 0.03
64 -18.73 -7.36 -96.02 0.63 -0.90 10.79 0.04 0.00 0.04
65 -18.73 -7.36 -96.02 0.67 -0.90 10.79 0.03 0.01 0.03
66 -18.73 -7.36 -96.02 0.71 -0.98 10.90 0.03 0.01 0.03
67 -18.73 -7.36 -96.02 0.75 -0.94 10.75 -0.01 0.01 0.03
68 -18.73 -7.36 -96.02 0.75 -0.94 10.67 -0.03 0.02 0.03
69 -18.73 -7.36 -96.02 0.71 -0.94 10.67 -0.05 0.03 0.03
70 -18.73 -7.36 -96.02 0.71 -0.94 10.67 -0.07 0.03 0.05
71 -18.73 -7.36 -96.02 0.71 -0.94 10.67 -0.09 0.03 0.03
72 -18.73 -7.36 -96.02 0.63 -0.94 10.63 -0.09 0.03 0.03
73 -18.73 -7.36 -96.02 0.63 -0.90 10.51 -0.08 0.02 0.03
74 -18.73 -7.36 -96.02 0.63 -0.86 10.71 -0.05 0.02 0.03
75 -18.73 -7.36 -96.02 0.67 -0.90 10.71 -0.02 0.02 0.03
76 -18.73 -7.36 -96.02 0.67 -0.82 10.75 -0.02 0.02 0.03
77 -18.73 -7.27 -96.02 0.59 -0.90 10.67 -0.02 0.02 0.03
78 -18.73 -7.27 -96.02 0.78 -0.90 10.79 -0.00 0.02 0.03
79 -18.73 -7.27 -96.02 0.71 -0.90 10.55 0.02 0.01 0.04
80 -18.73 -7.27 -96.02 0.71 -0.98 10.55 0.02 0.00 0.03
81 -18.73 -7.27 -96.02 0.82 -0.98 10.55 0.02 0.00 0.03
82 -18.73 -7.27 -96.02 0.78 -0.98 10.63 0.01 0.00 0.02
83 -18.73 -7.27 -96.02 0.75 -0.90 10.71 -0.03 -0.00 0.01
84 -18.82 -7.18 -96.12 0.67 -0.98 10.83 -0.05 -0.00 0.01
85 -18.82 -7.18 -96.12 0.67 -1.02 10.75 -0.05 -0.00 0.01
86 -18.82 -7.18 -96.12 0.59 -0.86 11.22 -0.06 0.01 0.00
87 -18.82 -7.18 -96.12 0.94 -0.78 10.36 -0.04 0.07 -0.00
88 -18.82 -7.18 -96.12 0.94 -0.90 10.36 -0.02 0.15 0.00
89 -18.82 -7.18 -96.12 0.78 -0.98 10.40 -0.04 0.12 0.00
90 -18.82 -7.18 -96.12 0.27 -1.06 11.65 -0.01 0.06 0.02
91 -18.45 -7.36 -96.22 0.71 -1.06 10.83 -0.06 0.07 0.04
92 -18.45 -7.36 -96.22 0.67 -0.90 10.51 -0.11 0.07 0.02
93 -18.45 -7.36 -96.22 0.51 -0.82 10.83 -0.07 0.10 0.02
94 -18.45 -7.36 -96.22 0.51 -1.14 10.43 0.01 0.12 0.05
95 -18.45 -7.36 -96.22 0.63 -1.14 10.43 0.01 0.12 0.05
96 -18.45 -7.36 -96.22 0.67 -1.10 10.47 -0.03 0.11 0.04
97 -18.45 -7.36 -96.22 0.55 -0.82 10.90 -0.12 0.10 0.01
98 -18.09 -7.18 -96.22 0.75 -1.14 10.75 -0.19 0.12 0.03
99 -18.09 -7.18 -96.22 0.55 -0.98 10.90 -0.21 0.14 0.03
100 -18.09 -7.18 -96.22 0.55 -0.94 10.94 -0.20 0.14 0.02
101 -18.09 -7.18 -96.22 0.55 -1.02 11.14 -0.16 0.14 0.05
102 -18.09 -7.18 -96.22 0.59 -1.02 10.75 -0.11 0.16 0.07
103 -18.09 -7.18 -96.22 0.55 -1.10 10.55 -0.13 0.14 0.07
104 -18.09 -6.73 -96.43 0.55 -0.98 10.63 -0.20 0.14 0.07
105 -17.91 -6.73 -96.43 0.51 -0.98 10.63 -0.20 0.14 0.07
106 -17.91 -6.73 -96.43 0.43 -1.18 10.40 -0.22 0.13 0.12
107 -17.91 -6.73 -96.43 0.51 -1.26 10.67 -0.25 0.14 0.17
108 -17.91 -6.73 -96.43 0.47 -1.02 10.59 -0.27 0.15 0.13
109 -17.91 -6.73 -96.43 0.63 -1.14 10.40 -0.23 0.11 0.13
110 -17.91 -6.73 -96.43 0.51 -1.18 10.32 -0.19 0.07 0.14
111 -17.82 -6.09 -96.73 0.55 -1.29 10.36 -0.18 0.09 0.13
112 -17.82 -6.09 -96.73 0.55 -1.33 10.55 -0.17 0.11 0.11
113 -17.82 -6.09 -96.73 0.39 -1.26 10.67 -0.16 0.11 0.10
114 -17.82 -6.09 -96.73 0.43 -1.37 10.67 -0.12 0.09 0.11
115 -17.82 -6.09 -96.73 0.43 -1.37 10.51 -0.07 0.06 0.09
116 -17.82 -6.09 -96.73 0.43 -1.41 10.59 -0.07 0.06 0.10
117 -17.82 -6.09 -96.73 0.51 -1.49 10.67 -0.04 0.06 0.10
118 -17.91 -5.91 -96.84 0.43 -1.49 10.67 -0.03 0.08 0.10
119 -17.91 -5.91 -96.84 0.51 -1.33 10.83 -0.01 0.08 0.08
120 -17.91 -5.91 -96.84 0.39 -1.41 10.83 -0.01 0.07 0.09
121 -17.91 -5.91 -96.84 0.35 -1.33 10.87 -0.00 0.05 0.09
122 -17.91 -5.91 -96.84 0.39 -1.29 10.90 -0.02 0.05 0.09
123 -17.91 -5.91 -96.84 0.43 -1.29 10.90 -0.01 0.06 0.08
124 -17.91 -5.91 -96.84 0.47 -1.33 10.63 0.03 0.07 0.07
125 -17.73 -5.82 -96.73 0.51 -1.37 10.51 0.03 0.07 0.06
126 -17.73 -5.82 -96.73 0.51 -0.86 10.36 -0.01 0.04 0.03
127 -17.73 -5.82 -96.73 0.82 -1.18 10.28 -0.01 -0.08 -0.04
128 -17.73 -5.82 -96.73 0.63 -1.33 10.55 -0.01 -0.10 -0.04
129 -17.73 -5.82 -96.73 0.51 -1.14 10.59 -0.05 -0.10 0.02
130 -17.73 -5.82 -96.73 0.67 -1.45 10.59 -0.14 -0.08 0.01
131 -17.82 -5.82 -96.94 0.55 -1.65 10.75 -0.18 -0.11 0.02
132 -17.82 -5.82 -96.94 0.47 -1.53 10.63 -0.19 -0.13 0.05
133 -17.82 -5.82 -96.94 0.51 -1.41 10.71 -0.20 -0.15 0.07
134 -17.82 -5.82 -96.94 0.43 -1.41 10.90 -0.19 -0.13 0.10
135 -17.82 -5.82 -96.94 0.47 -1.57 10.94 -0.16 -0.01 0.14
136 -17.82 -5.82 -96.94 0.55 -1.49 10.71 -0.12 0.09 0.24
137 -17.82 -5.82 -96.94 0.55 -1.69 10.51 -0.10 0.10 0.31
138 -18.00 -5.27 -96.43 0.39 -1.80 10.36 -0.12 0.08 0.41
139 -18.00 -5.27 -96.43 0.47 -1.61 10.40 -0.22 0.02 0.46
140 -18.00 -5.27 -96.43 0.27 -1.53 10.83 -0.26 0.05 0.49
141 -18.00 -5.27 -96.43 0.27 -1.02 10.87 -0.25 0.05 0.49
142 -18.00 -5.27 -96.43 0.31 -1.02 10.40 -0.13 0.06 0.42
143 -18.00 -5.27 -96.43 0.31 -0.94 10.40 -0.02 0.03 0.33
144 -18.45 -5.00 -96.53 0.43 -1.22 10.59 0.07 0.03 0.29
145 -18.45 -5.00 -96.53 0.35 -1.37 10.43 0.20 0.06 0.29
146 -18.45 -5.00 -96.53 0.39 -1.45 10.79 0.25 0.10 0.25
147 -18.45 -5.00 -96.53 0.43 -1.80 10.83 0.24 0.13 0.26
148 -18.45 -5.00 -96.53 0.47 -1.92 10.63 0.17 0.12 0.26
149 -18.45 -5.00 -96.53 0.39 -1.73 10.63 0.03 0.10 0.23
150 -18.45 -5.00 -96.53 0.47 -1.69 10.63 -0.10 0.11 0.22
151 -18.36 -4.64 -96.73 0.47 -1.73 10.75 -0.10 0.11 0.22
152 -18.36 -4.64 -96.73 0.43 -1.57 10.59 -0.17 0.11 0.23
153 -18.36 -4.64 -96.73 0.47 -1.41 10.63 -0.17 0.10 0.21
154 -18.36 -4.64 -96.73 0.27 -1.53 10.71 -0.14 0.10 0.27
155 -18.36 -4.64 -96.73 0.59 -1.61 10.83 -0.19 0.11 0.38
156 -18.36 -4.64 -96.73 0.31 -1.33 10.83 -0.28 0.11 0.43
157 -18.36 -4.64 -96.73 0.27 -1.29 10.67 -0.32 0.07 0.36
158 -17.82 -4.09 -96.84 0.43 -1.14 10.94 -0.28 0.10 0.31
159 -17.82 -4.09 -96.84 0.27 -1.33 11.02 -0.18 0.13 0.29
160 -17.82 -4.09 -96.84 0.16 -1.45 10.94 -0.10 0.16 0.29
161 -17.82 -4.09 -96.84 0.20 -1.73 10.98 -0.11 0.21 0.28
162 -17.82 -4.09 -96.84 0.20 -1.77 10.71 -0.11 0.21 0.25
163 -17.82 -4.09 -96.84 0.16 -1.88 10.71 -0.21 0.19 0.25
164 -17.82 -4.09 -96.84 0.20 -1.84 10.71 -0.30 0.15 0.24
165 -18.36 -3.27 -96.94 0.24 -1.84 10.47 -0.29 0.16 0.26
166 -18.36 -3.27 -96.94 0.12 -1.65 10.47 -0.22 0.21 0.25
167 -18.36 -3.27 -96.94 0.16 -1.69 10.43 -0.21 0.25 0.24
168 -18.36 -3.27 -96.94 0.12 -1.80 10.51 -0.26 0.29 0.25
169 -18.36 -3.27 -96.94 0.08 -1.53 10.55 -0.28 0.29 0.27
170 -18.36 -3.27 -96.94 0.04 -1.45 10.40 -0.21 0.25 0.27
171 -17.45 -2.64 -97.45 0.12 -1.45 10.32 -0.16 0.20 0.24
172 -17.45 -2.64 -97.45 0.04 -1.77 10.28 -0.09 0.18 0.24
173 -17.45 -2.64 -97.45 -0.08 -1.96 10.40 -0.09 0.16 0.29
174 -17.45 -2.64 -97.45 -0.04 -2.04 10.43 -0.07 0.16 0.29
175 -17.45 -2.64 -97.45 -0.08 -2.04 10.71 -0.17 0.15 0.31
176 -17.45 -2.64 -97.45 -0.12 -2.08 10.79 -0.34 0.18 0.30
177 -17.45 -2.64 -97.45 -0.16 -2.28 10.90 -0.45 0.24 0.27
178 -17.09 -1.73 -97.24 -0.31 -2.08 10.67 -0.55 0.26 0.27
179 -17.09 -1.73 -97.24 -0.27 -2.24 10.71 -0.63 0.24 0.28
180 -17.09 -1.73 -97.24 -0.31 -2.47 10.43 -0.67 0.24 0.31
181 -17.09 -1.73 -97.24 -1.14 -2.75 10.32 -0.66 0.27 0.31
182 -17.09 -1.73 -97.24 2.47 -1.96 10.00 -0.40 0.22 0.14
183 -17.09 -1.73 -97.24 0.47 -0.71 11.53 1.43 -1.05 -0.56
184 -17.09 -2.55 -97.14 0.67 -1.77 9.73 1.58 -1.15 -0.06
185 -18.55 -2.55 -97.14 0.04 -2.08 9.69 0.79 -0.70 -0.03
186 -18.55 -2.55 -97.14 0.16 -1.92 10.28 0.24 -0.13 -0.29
187 -18.55 -2.55 -97.14 0.20 -1.61 11.14 0.26 -0.13 -0.29
188 -18.55 -2.55 -97.14 0.35 -1.37 11.06 0.14 0.04 -0.42
189 -18.55 -2.55 -97.14 0.39 -1.37 10.71 0.31 -0.04 -0.36
190 -18.55 -2.55 -97.14 0.43 -1.29 10.36 0.45 0.03 -0.14
191 -18.36 -3.18 -96.94 0.20 -1.65 10.59 0.33 0.20 -0.10
192 -18.36 -3.18 -96.94 0.20 -1.88 10.51 -0.02 0.26 -0.07
193 -18.36 -3.18 -96.94 0.04 -1.88 10.67 -0.18 0.18 -0.04
194 -18.36 -3.18 -96.94 -0.04 -1.73 10.71 -0.16 0.06 -0.08
195 -18.36 -3.18 -96.94 0.08 -1.65 10.47 -0.15 -0.00 -0.12
196 -18.36 -3.18 -96.94 0.08 -1.65 10.71 -0.16 -0.03 -0.14
197 -18.36 -3.18 -96.94 -0.04 -1.57 10.94 -0.14 -0.03 -0.15
198 -18.64 -3.27 -97.04 0.08 -1.69 10.83 -0.08 -0.06 -0.13
199 -18.64 -3.27 -97.04 0.16 -1.65 10.87 -0.02 -0.08 -0.06
200 -18.64 -3.27 -97.04 0.20 -1.73 10.71 0.02 -0.03 0.00
201 -18.64 -3.27 -97.04 0.04 -1.80 10.87 0.02 -0.03 0.09
202 -18.64 -3.27 -97.04 0.16 -1.65 10.71 0.00 0.03 0.09
203 -18.64 -3.27 -97.04 0.16 -1.77 10.63 0.02 0.06 0.14
204 -18.45 -3.36 -96.94 0.31 -1.77 10.63 0.09 0.04 0.17
205 -18.45 -3.36 -96.94 0.39 -1.80 10.55 0.14 0.04 0.18
206 -18.45 -3.36 -96.94 0.27 -1.80 10.59 0.12 0.06 0.28
207 -18.45 -3.36 -96.94 0.00 -2.12 10.40 0.07 0.07 0.41
208 -18.45 -3.36 -96.94 -0.51 -2.04 10.59 0.10 -0.06 0.40
209 -18.45 -3.36 -96.94 -0.20 -1.41 11.06 0.26 -0.33 0.24
210 -18.45 -3.36 -96.94 0.43 -1.18 10.83 0.56 -0.64 0.23
211 -19.09 -4.00 -96.63 0.47 -1.41 10.59 0.51 -0.40 0.32
212 -19.09 -4.00 -96.63 0.35 -1.41 10.32 0.51 -0.40 0.32
213 -19.09 -4.00 -96.63 0.20 -1.57 10.63 0.26 -0.04 0.29
214 -19.09 -4.00 -96.63 0.43 -1.49 10.67 0.13 0.06 0.29
215 -19.09 -4.00 -96.63 0.20 -1.84 11.06 0.12 -0.04 0.27
216 -19.09 -4.00 -96.63 0.24 -2.04 11.30 0.11 -0.12 0.33
217 -19.09 -4.00 -96.63 0.20 -1.77 10.98 0.15 -0.04 0.52
218 -19.27 -3.82 -96.43 0.20 -1.41 10.24 0.13 0.02 0.60
219 -19.27 -3.82 -96.43 0.47 -0.67 10.51 -0.01 0.04 0.42
220 -19.27 -3.82 -96.43 0.12 -0.98 10.28 -0.04 -0.07 0.10
221 -19.27 -3.82 -96.43 0.35 -0.67 10.67 0.28 -0.50 -0.02
222 -19.27 -3.82 -96.43 0.47 -1.18 10.43 0.32 -0.60 0.05
223 -19.27 -3.82 -96.43 0.47 -1.33 10.43 0.32 -0.60 0.13
224 -20.09 -4.27 -96.33 0.43 -1.29 10.71 0.26 -0.48 0.13
225 -20.09 -4.27 -96.33 0.47 -1.53 10.79 0.21 -0.31 0.16
226 -20.09 -4.27 -96.33 0.39 -1.69 10.71 0.12 -0.18 0.18
227 -20.09 -4.27 -96.33 0.35 -1.57 10.83 0.04 -0.14 0.18
228 -20.09 -4.27 -96.33 0.43 -1.45 10.79 -0.07 -0.15 0.14
229 -20.09 -4.27 -96.33 0.55 -1.45 10.90 -0.25 -0.11 0.07
230 -20.09 -4.27 -96.33 0.51 -1.29 10.90 -0.43 0.03 0.07
231 -20.36 -3.64 -96.33 0.59 -0.98 10.94 -0.44 0.18 0.10
232 -20.36 -3.64 -96.33 0.59 -1.02 10.90 -0.31 0.25 0.28
233 -20.36 -3.64 -96.33 0.47 -1.02 10.75 -0.14 0.22 0.54
234 -20.36 -3.64 -96.33 0.55 -0.75 10.55 -0.02 0.10 0.66
235 -20.36 -3.64 -96.33 0.43 -0.71 10.55 -0.02 0.10 0.66
236 -20.36 -3.64 -96.33 0.31 -0.98 10.59 -0.02 -0.00 0.78
237 -20.36 -3.64 -96.33 0.12 -1.33 10.67 -0.04 -0.05 1.05
238 -20.18 -2.55 -96.02 0.16 -1.69 10.75 -0.01 -0.10 1.19
239 -20.18 -2.55 -96.02 0.16 -2.20 10.83 0.04 -0.04 1.26
240 -20.18 -2.55 -96.02 0.16 -2.12 10.71 0.08 0.13 1.36
241 -20.18 -2.55 -96.02 0.24 -1.92 10.67 0.09 0.27 1.43
242 -20.18 -2.55 -96.02 0.08 -1.92 10.55 0.02 0.32 1.41
243 -20.18 -2.55 -96.02 0.16 -1.57 10.28 -0.07 0.33 1.48
244 -19.73 -1.18 -96.53 0.16 -1.33 10.47 -0.22 0.29 1.37
245 -19.73 -1.18 -96.53 0.16 -1.02 10.51 -0.36 0.27 1.23
246 -19.73 -1.18 -96.53 0.12 -1.14 10.55 -0.36 0.27 1.27
247 -19.73 -1.18 -96.53 -0.08 -1.14 11.14 -0.40 0.25 1.28
248 -19.73 -1.18 -96.53 0.00 -1.18 10.87 -0.33 0.19 1.42
249 -19.73 -1.18 -96.53 0.00 -1.45 10.90 -0.34 0.05 1.58
250 -19.73 -1.18 -96.53 0.08 -1.45 10.59 -0.38 -0.08 1.74
251 -19.73 0.82 -96.63 -0.12 -1.69 10.43 -0.25 -0.17 1.93
252 -19.73 0.82 -96.63 -0.12 -1.88 10.79 -0.24 -0.24 2.01
253 -19.73 0.82 -96.63 -0.39 -2.20 10.71 -0.26 -0.29 2.01
254 -19.73 0.82 -96.63 -0.31 -2.31 10.71 -0.17 -0.26 2.02
255 -19.73 0.82 -96.63 -0.27 -2.71 10.43 -0.24 -0.21 1.95
256 -19.73 0.82 -96.63 -0.31 -2.24 10.40 -0.37 -0.13 1.82
257 -19.73 0.82 -96.63 0.00 -2.28 10.51 -0.40 0.01 1.71
258 -19.64 3.27 -96.33 -0.43 -2.08 10.55 -0.36 0.16 1.64
259 -19.64 3.27 -96.33 -0.47 -1.92 10.59 -0.37 0.16 1.64
260 -19.64 3.27 -96.33 -0.31 -1.84 10.67 -0.36 0.25 1.72
261 -19.64 3.27 -96.33 -0.31 -1.80 10.71 -0.36 0.29 1.86
262 -19.64 3.27 -96.33 -0.35 -1.80 10.63 -0.33 0.27 1.96
263 -19.64 3.27 -96.33 -0.16 -1.84 10.47 -0.29 0.24 2.03
264 -18.00 6.00 -96.63 -0.59 2.24 9.65 -0.25 0.21 2.06
265 -18.00 6.00 -96.63 -0.63 -2.31 10.59 -0.13 0.21 2.05
266 -18.00 6.00 -96.63 -0.75 -2.31 10.98 -0.09 0.16 2.00
267 -18.00 6.00 -96.63 -0.82 -2.35 10.75 -0.05 0.12 2.05
268 -18.00 6.00 -96.63 -1.14 -2.31 10.67 -0.05 0.10 2.10
269 -18.00 6.00 -96.63 -0.82 -2.47 10.94 -0.09 0.04 2.11
270 -18.00 6.00 -96.63 -1.33 -2.59 10.55 -0.09 0.04 2.11
271 -17.36 7.82 -96.63 -1.41 -2.63 10.36 -0.17 -0.04 2.09
272 -17.36 7.82 -96.63 -1.45 -2.43 10.51 -0.34 -0.07 2.06
273 -17.36 7.82 -96.63 -1.61 -2.20 10.51 -0.34 0.02 2.03
274 -17.36 7.82 -96.63 -1.53 -2.00 10.67 -0.10 0.17 2.11
275 -17.36 7.82 -96.63 -0.90 -1.96 10.51 -0.07 0.13 2.22
276 -17.36 7.82 -96.63 -1.14 -1.80 10.20 -0.21 -0.07 2.27
277 -17.36 7.82 -96.63 -1.02 -1.84 10.40 -0.27 -0.21 2.28
278 -16.18 10.18 -96.53 -1.10 -1.92 10.36 -0.02 -0.19 2.35
279 -16.18 10.18 -96.53 -1.41 -1.80 10.40 0.20 -0.18 2.56
280 -16.18 10.18 -96.53 -1.49 -1.92 10.51 0.25 -0.29 2.66
281 -16.18 10.18 -96.53 -1.88 -2.00 10.79 0.38 -0.32 2.74
282 -16.18 10.18 -96.53 -1.80 -2.20 11.18 0.38 -0.31 2.78
283 -16.18 10.18 -96.53 -1.73 -2.16 10.98 0.48 -0.31 2.78
284 -15.09 11.00 -96.53 -1.88 -1.96 10.24 0.40 -0.38 2.74
285 -15.09 11.00 -96.53 -1.49 -2.08 10.28 0.18 -0.44 2.73
286 -15.09 11.00 -96.53 -1.37 -1.45 10.36 -0.07 -0.42 2.71
287 -15.09 11.00 -96.53 -0.71 -1.37 10.28 -0.18 -0.39 2.69
288 -15.09 11.00 -96.53 -0.35 -1.14 10.04 -0.03 -0.32 2.78
289 -15.09 11.00 -96.53 -0.24 -1.14 10.20 0.10 -0.28 2.85
290 -15.09 11.00 -96.53 -1.57 -3.14 10.28 0.21 -0.29 2.92
291 -13.73 13.00 -96.22 -1.14 -1.80 10.71 0.16 -0.56 3.02
292 -13.73 13.00 -96.22 -2.04 -1.45 11.02 0.79 -0.68 2.76
293 -13.73 13.00 -96.22 -2.39 -1.65 10.87 0.97 -0.95 2.59
294 -13.73 13.00 -96.22 -2.04 -0.86 10.83 0.82 -1.09 2.45
295 -13.73 13.00 -96.22 -1.92 -1.26 10.94 0.63 -1.07 2.33
296 -13.73 13.00 -96.22 -1.57 -1.10 11.18 0.80 -0.77 2.32
297 -14.18 12.55 -96.73 -1.29 -0.78 11.41 0.80 -0.77 2.24
298 -14.18 12.55 -96.73 -1.33 -1.02 11.14 0.70 -0.61 2.26
299 -14.18 12.55 -96.73 -1.10 -0.67 11.18 0.37 -0.65 2.17
300 -14.18 12.55 -96.73 -1.22 -0.94 10.83 0.02 -0.79 2.03
301 -14.18 12.55 -96.73 -1.06 -0.75 10.20 -0.20 -0.90 1.86
302 -14.18 12.55 -96.73 -0.86 -0.51 10.16 0.03 -0.81 1.75
303 -14.18 12.55 -96.73 -0.90 -0.35 9.85 0.47 -0.56 1.76
304 -14.18 12.55 -96.22 -0.78 -0.16 10.40 0.84 -0.25 1.72
305 -14.18 12.55 -96.22 -0.94 -0.39 10.12 1.06 0.04 1.74
306 -14.18 12.55 -96.22 -1.10 -0.27 10.20 0.99 0.27 1.70
307 -14.18 12.55 -96.22 -1.18 -0.16 9.73 0.87 0.45 1.59
308 -14.18 12.55 -96.22 -1.41 -0.04 10.55 0.95 0.61 1.49
309 -14.18 12.55 -96.22 -1.26 -0.12 11.49 1.26 0.69 1.49
310 -14.18 12.55 -96.22 -1.14 0.16 11.10 1.27 0.69 1.49
311 -11.73 11.00 -98.06 -1.10 0.35 10.28 1.49 0.64 1.49
312 -11.73 11.00 -98.06 -0.94 0.75 11.61 1.60 0.63 1.48
313 -11.73 11.00 -98.06 -1.45 0.75 11.10 1.65 0.59 1.51
314 -11.73 11.00 -98.06 -1.41 1.02 10.90 1.59 0.51 1.52
315 -11.73 11.00 -98.06 -1.61 0.94 10.79 1.48 0.51 1.52
316 -11.73 11.00 -98.06 -1.73 1.10 10.20 1.34 0.61 1.51
317 -8.91 8.18 -99.69 -1.80 1.14 10.28 1.29 0.73 1.47
318 -8.91 8.18 -99.69 -1.80 1.14 10.00 1.26 0.84 1.43
319 -8.91 8.18 -99.69 -1.84 1.45 10.00 1.26 0.84 1.43
320 -8.91 8.18 -99.69 -1.80 1.65 10.40 1.22 0.94 1.36
321 -8.91 8.18 -99.69 -1.61 1.88 10.36 1.20 1.05 1.26
322 -8.91 8.18 -99.69 -1.37 2.00 10.63 1.14 1.11 1.22
323 -8.91 8.18 -99.69 -1.53 1.96 11.14 0.92 1.01 1.24
324 -6.45 5.64 -100.41 -1.92 2.16 11.18 0.69 0.78 1.29
325 -6.45 5.64 -100.41 -1.84 2.20 10.90 0.58 0.46 1.36
326 -6.45 5.64 -100.41 -2.08 2.31 10.98 0.62 0.24 1.42
327 -6.45 5.64 -100.41 -2.04 2.28 10.83 0.61 0.24 1.42
328 -6.45 5.64 -100.41 -2.08 2.59 10.87 0.54 0.09 1.45
329 -6.45 5.64 -100.41 -2.20 2.43 10.63 0.43 0.04 1.42
330 -6.45 5.64 -100.41 -2.20 2.28 10.24 0.35 0.02 1.42
331 -5.64 4.64 -101.02 -2.16 2.43 10.28 0.23 0.01 1.37
332 -5.64 4.64 -101.02 -2.12 2.24 10.16 0.09 0.08 1.23
333 -5.64 4.64 -101.02 -2.24 2.59 10.20 -0.01 0.16 1.08
334 -5.64 4.64 -101.02 -2.24 2.39 10.24 0.03 0.26 0.96
335 -5.64 4.64 -101.02 -2.35 2.39 10.24 0.03 0.26 0.96
336 -5.64 4.64 -101.02 -2.16 2.67 10.16 0.11 0.44 0.87
337 -5.64 4.64 -101.02 -1.96 2.79 10.36 0.17 0.54 0.78
338 -4.27 4.36 -100.82 -1.84 2.67 10.71 0.22 0.46 0.76
339 -4.27 4.36 -100.82 -1.73 2.59 10.28 0.21 0.37 0.81
340 -4.27 4.36 -100.82 -2.00 2.63 10.32 0.19 0.35 0.80
341 -4.27 4.36 -100.82 -2.12 2.47 9.69 0.19 0.41 0.75
342 -4.27 4.36 -100.82 -2.28 2.43 9.73 0.23 0.57 0.66
343 -4.27 4.36 -100.82 -2.24 2.71 10.24 0.23 0.57 0.66
344 -4.27 4.36 -100.82 -1.88 2.75 10.40 0.26 0.80 0.52
345 -2.91 4.09 -101.53 -1.96 2.90 10.32 0.24 0.84 0.43
346 -2.91 4.09 -101.53 -2.31 3.02 10.59 0.18 0.71 0.39
347 -2.91 4.09 -101.53 -2.39 3.06 10.00 0.12 0.50 0.35
348 -2.91 4.09 -101.53 -2.43 2.90 10.00 0.07 0.29 0.33
349 -2.91 4.09 -101.53 -2.51 3.02 10.08 0.00 0.14 0.31
350 -2.91 4.09 -101.53 -2.47 3.14 9.92 -0.01 0.09 0.30
351 -2.91 4.09 -101.53 -2.16 2.86 10.08 -0.01 0.08 0.29
352 -2.36 3.82 -101.22 -2.16 2.71 10.04 -0.01 0.08 0.29
353 -2.36 3.82 -101.22 -2.20 2.67 10.04 0.00 0.06 0.25
354 -2.36 3.82 -101.22 -2.35 2.79 10.08 0.01 0.10 0.21
355 -2.36 3.82 -101.22 -2.31 2.79 10.24 0.02 0.15 0.13
356 -2.36 3.82 -101.22 -2.51 2.82 10.32 0.01 0.13 0.07
357 -2.36 3.82 -101.22 -2.51 2.79 10.24 -0.02 0.11 0.00
358 -2.36 3.82 -101.22 -2.51 2.82 10.36 -0.03 0.11 -0.05
359 -2.18 3.91 -101.12 -2.39 2.90 10.55 -0.02 0.09 -0.08
360 -2.18 3.91 -101.12 -2.35 3.02 10.28 0.02 0.06 -0.09
361 -2.18 3.91 -101.12 -2.24 2.86 10.24 0.02 0.06 -0.09
362 -2.18 3.91 -101.12 -2.12 2.82 10.32 -0.02 0.03 -0.09
363 -2.18 3.91 -101.12 -2.24 2.90 10.16 -0.04 0.02 -0.09
364 -2.18 3.91 -101.12 -2.28 2.79 10.12 -0.06 0.02 -0.09
365 -2.18 3.91 -101.12 -2.16 2.86 10.40 -0.04 0.05 -0.09
366 -2.45 4.36 -101.63 -2.08 2.67 10.36 -0.01 0.05 -0.09
367 -2.45 4.36 -101.63 -2.28 2.82 10.36 -0.01 -0.02 -0.06
368 -2.45 4.36 -101.63 -2.39 2.98 10.43 -0.01 -0.05 -0.06
369 -2.45 4.36 -101.63 -2.39 2.90 10.40 0.01 -0.06 -0.06
370 -2.45 4.36 -101.63 -2.47 2.79 10.32 0.00 -0.08 -0.04
371 -2.45 4.36 -101.63 -2.43 2.90 10.24 0.01 -0.04 -0.02
372 -2.45 3.91 -101.12 -2.51 3.02 10.24 0.01 -0.04 -0.02
373 -2.45 3.91 -101.12 -2.39 2.94 10.36 0.02 0.02 -0.02
374 -2.45 3.91 -101.12 -2.31 2.94 10.28 0.00 0.04 -0.00
375 -2.45 3.91 -101.12 -2.24 2.86 10.28 0.01 0.05 0.01
376 -2.45 3.91 -101.12 -2.28 2.86 10.08 0.04 0.05 0.02
377 -2.45 3.91 -101.12 -2.20 2.90 9.96 0.06 0.04 0.04
378 -2.45 3.91 -101.12 -2.20 2.90 10.04 0.01 0.02 0.04
379 -2.55 4.09 -101.33 -2.28 2.86 10.04 -0.04 0.02 0.04
380 -2.55 4.09 -101.33 -2.28 2.82 10.00 -0.08 0.01 0.04
381 -2.55 4.09 -101.33 -2.28 2.82 10.16 -0.08 0.01 0.05
382 -2.55 4.09 -101.33 -2.43 2.86 10.12 -0.09 0.01 0.05
383 -2.55 4.09 -101.33 -2.51 2.90 10.16 -0.08 0.00 0.05
384 -2.55 4.09 -101.33 -2.47 2.94 10.20 -0.10 0.00 0.05
385 -2.55 4.09 -101.33 -2.35 2.98 10.36 -0.10 0.02 0.04
386 -2.45 4.27 -101.22 -2.39 2.98 10.16 -0.05 0.04 0.02
387 -2.45 4.27 -101.22 -2.47 2.98 10.00 -0.03 0.07 0.01
388 -2.45 4.27 -101.22 -2.47 3.06 10.08 -0.03 0.13 -0.01
389 -2.45 4.27 -101.22 -2.24 2.90 10.28 -0.07 0.13 -0.03
390 -2.45 4.27 -101.22 -2.16 2.86 10.24 -0.11 0.10 -0.01
391 -2.45 4.27 -101.22 -2.12 2.79 10.08 -0.11 0.10 -0.00
392 -2.45 4.27 -101.22 -2.28 2.79 10.12 -0.09 0.07 -0.00
393 -2.18 4.27 -101.02 -2.28 2.82 10.16 -0.07 0.05 0.01
394 -2.18 4.27 -101.02 -2.47 2.98 10.28 -0.05 0.05 -0.01
395 -2.18 4.27 -101.02 -2.47 2.98 10.40 -0.05 0.05 -0.03
396 -2.18 4.27 -101.02 -2.47 2.94 10.28 -0.04 0.05 -0.02
397 -2.18 4.27 -101.02 -2.43 3.02 10.28 -0.01 0.09 -0.03
398 -2.18 4.27 -101.02 -2.31 2.82 10.32 -0.01 0.11 -0.05
399 -2.18 4.36 -101.02 -2.28 2.86 10.36 -0.05 0.07 -0.04
400 -2.18 4.36 -101.02 -2.31 2.71 10.43 -0.07 0.04 -0.06
401 -2.18 4.36 -101.02 -2.31 2.86 10.47 -0.02 0.02 -0.09
402 -2.18 4.36 -101.02 -2.39 2.82 10.40 -0.02 0.02 -0.12
403 -2.18 4.36 -101.02 -2.47 2.86 10.32 0.04 0.02 -0.12
404 -2.18 4.36 -101.02 -2.35 2.86 10.28 0.06 0.04 -0.14
405 -2.18 4.36 -101.02 -2.35 2.90 10.32 0.02 0.05 -0.17
406 -2.18 4.55 -101.33 -2.59 2.75 10.12 -0.03 0.02 -0.16
407 -2.18 4.55 -101.33 -2.59 2.94 10.00 -0.04 0.01 -0.14
408 -2.18 4.55 -101.33 -2.47 2.82 10.16 -0.05 0.03 -0.13
409 -2.18 4.55 -101.33 -2.43 2.75 10.24 -0.05 0.06 -0.13
410 -2.18 4.55 -101.33 -2.43 2.79 10.20 -0.04 0.06 -0.11
411 -2.18 4.55 -101.33 -2.51 2.82 10.04 -0.05 0.05 -0.10
412 -2.18 4.55 -101.33 -2.28 2.79 10.00 -0.10 0.10 -0.13
413 -2.27 4.45 -101.02 -2.43 2.75 10.08 -0.10 0.10 -0.14
414 -2.27 4.45 -101.02 -2.51 2.82 10.28 -0.08 0.14 -0.14
415 -2.27 4.45 -101.02 -2.55 2.86 10.32 -0.06 0.12 -0.15
416 -2.27 4.45 -101.02 -2.63 2.90 10.20 -0.07 0.10 -0.12
417 -2.27 4.45 -101.02 -2.63 2.79 10.00 -0.06 0.09 -0.09
418 -2.27 4.45 -101.02 -2.55 2.79 10.12 -0.07 0.07 -0.05
419 -2.27 4.45 -101.02 -2.59 2.71 10.12 -0.10 0.08 -0.01
420 -2.18 4.91 -100.92 -2.55 2.71 10.16 -0.13 0.10 -0.01
421 -2.18 4.91 -100.92 -2.43 2.67 10.20 -0.12 0.10 -0.00
422 -2.18 4.91 -100.92 -2.47 2.55 10.16 -0.08 0.09 0.01
423 -2.18 4.91 -100.92 -2.47 2.67 10.16 -0.03 0.11 0.02
424 -2.18 4.91 -100.92 -2.51 2.79 10.16 -0.03 0.11 0.02
425 -2.18 4.91 -100.92 -2.59 2.75 10.28 -0.04 0.10 0.03
426 -1.91 4.91 -101.12 -2.59 2.79 10.24 -0.07 0.07 0.05
427 -1.91 4.91 -101.12 -2.59 2.67 10.32 -0.09 0.04 0.07
428 -1.91 4.91 -101.12 -2.55 2.63 10.47 -0.09 0.04 0.07
429 -1.91 4.91 -101.12 -2.71 2.71 10.32 -0.04 0.04 0.08
430 -1.91 4.91 -101.12 -2.67 2.71 10.20 -0.05 0.06 0.09
431 -1.91 4.91 -101.12 -2.63 2.71 10.20 -0.06 0.06 0.09
432 -1.91 4.91 -101.12 -2.55 2.63 10.36 -0.08 0.07 0.10
433 -2.00 4.91 -100.82 -2.47 2.55 10.24 -0.09 0.06 0.11
434 -2.00 4.91 -100.82 -2.35 2.59 10.32 -0.09 0.06 0.11
435 -2.00 4.91 -100.82 -2.51 2.59 10.32 -0.08 0.06 0.13
436 -2.00 4.91 -100.82 -2.55 2.63 10.28 -0.07 0.05 0.13
437 -2.00 4.91 -100.82 -2.59 2.67 10.32 -0.06 0.03 0.15
438 -2.00 4.91 -100.82 -2.67 2.67 10.28 -0.06 0.00 0.16
439 -2.00 4.91 -100.82 -2.55 2.63 10.24 -0.06 -0.02 0.16
440 -1.73 5.00 -100.92 -2.59 2.67 10.28 -0.02 -0.01 0.19
441 -1.73 5.00 -100.92 -2.51 2.71 10.28 -0.01 0.02 0.18
442 -1.73 5.00 -100.92 -2.47 2.63 10.16 -0.03 0.03 0.19
443 -1.73 5.00 -100.92 -2.51 2.67 10.16 -0.06 0.02 0.17
444 -1.73 5.00 -100.92 -2.55 2.75 10.36 -0.06 0.02 0.17
445 -1.73 5.00 -100.92 -2.67 2.63 10.36 -0.11 0.00 0.17
446 -1.73 5.00 -100.92 -2.67 2.75 10.36 -0.13 -0.01 0.15
447 -1.91 5.09 -101.22 -2.59 2.75 10.36 -0.11 0.01 0.14
448 -1.91 5.09 -101.22 -2.55 2.75 10.36 -0.07 0.02 0.12
449 -1.91 5.09 -101.22 -2.55 2.90 10.32 -0.01 0.01 0.11
450 -1.91 5.09 -101.22 -2.51 2.75 10.20 -0.03 -0.01 0.12
451 -1.91 5.09 -101.22 -2.43 2.67 10.28 -0.03 -0.03 0.11
452 -1.91 5.09 -101.22 -2.47 2.59 10.28 -0.03 -0.02 0.09
453 0.00 0.00 0.00 -2.35 2.55 10.16 -0.01 -0.00 0.07
454 -1.82 5.09 -101.02 -2.55 2.67 10.12 -0.01 -0.00 0.07
455 -1.82 5.09 -101.02 -2.47 2.67 10.12 0.02 0.04 0.03
456 -1.82 5.09 -101.02 -2.59 2.71 10.28 -0.02 0.05 0.01
457 -1.82 5.09 -101.02 -2.51 2.71 10.43 -0.04 0.05 -0.01
458 -1.82 5.09 -101.02 -2.47 2.63 10.36 -0.04 0.08 -0.01
459 -1.82 5.09 -101.02 -2.35 2.59 10.32 -0.01 0.11 -0.01
460 -1.73 5.18 -101.02 -2.43 2.59 10.28 0.03 0.13 -0.01
461 -1.73 5.18 -101.02 -2.47 2.59 10.12 0.04 0.11 -0.03
462 -1.73 5.18 -101.02 -2.59 2.71 10.16 0.03 0.09 -0.05
463 -1.73 5.18 -101.02 -2.51 2.63 10.16 0.03 0.08 -0.06
464 -1.73 5.18 -101.02 -2.59 2.63 10.47 0.02 0.08 -0.06
465 -1.73 5.18 -101.02 -2.39 2.67 10.40 -0.01 0.06 -0.07
466 -1.73 5.18 -101.02 -2.63 2.71 10.40 -0.04 0.00 -0.07
467 -1.73 5.36 -100.82 -2.59 2.75 10.20 -0.04 -0.01 -0.08
468 -1.73 5.36 -100.82 -2.67 2.67 10.28 -0.03 0.04 -0.12
469 -1.73 5.36 -100.82 -2.59 2.75 10.28 -0.02 0.08 -0.14
470 -1.73 5.36 -100.82 -2.59 2.67 10.32 -0.02 0.14 -0.16
471 -1.73 5.36 -100.82 -2.59 2.71 10.32 -0.04 0.14 -0.17
472 -1.73 5.36 -100.82 -2.63 2.67 10.24 -0.00 0.14 -0.17
473 -1.73 5.36 -100.82 -2.67 2.55 10.04 0.02 0.17 -0.16
474 -1.55 5.09 -100.92 -2.59 2.59 10.08 0.02 0.16 -0.17
475 -1.55 5.09 -100.92 -2.67 2.63 10.24 0.00 0.16 -0.17
476 -1.55 5.09 -100.92 -2.75 2.59 10.16 -0.01 0.14 -0.17
477 -1.55 5.09 -100.92 -2.79 2.63 10.20 -0.03 0.09 -0.14
478 -1.55 5.09 -100.92 -2.75 2.59 10.04 -0.03 0.05 -0.12
479 -1.55 5.09 -100.92 -2.75 2.67 10.00 -0.05 0.04 -0.11
480 -1.73 5.55 -101.12 -2.71 2.67 10.32 -0.08 0.02 -0.08
481 -1.73 5.55 -101.12 -2.79 2.51 10.20 -0.13 0.01 -0.07
482 -1.73 5.55 -101.12 -2.67 2.55 10.24 -0.13 0.03 -0.05
483 -1.73 5.55 -101.12 -2.67 2.47 10.20 -0.10 0.06 -0.01
484 -1.73 5.55 -101.12 -2.59 2.47 10.32 -0.07 0.07 0.01
485 -1.73 5.55 -101.12 -2.55 2.47 10.32 -0.07 0.07 0.04
486 -1.73 5.55 -101.12 -2.67 2.43 10.12 -0.05 0.05 0.04
487 -1.55 5.73 -100.82 -2.71 2.55 10.12 -0.06 0.01 0.07
488 -1.55 5.73 -100.82 -2.71 2.55 10.28 -0.07 -0.02 0.09
489 -1.55 5.73 -100.82 -2.71 2.55 10.24 -0.05 -0.00 0.13
490 -1.55 5.73 -100.82 -2.75 2.55 10.08 -0.03 0.05 0.13
491 -1.55 5.73 -100.82 -2.71 2.47 10.16 -0.01 0.06 0.13
492 -1.55 5.73 -100.82 -2.67 2.59 10.28 -0.01 0.06 0.11
493 -1.55 5.73 -100.82 -2.67 2.59 10.36 -0.02 0.01 0.09
494 -1.45 5.45 -100.92 -2.75 2.59 10.40 -0.00 -0.02 0.07
495 -1.45 5.45 -100.92 -2.67 2.67 10.32 -0.00 -0.02 0.06
496 -1.45 5.45 -100.92 -2.67 2.55 10.36 0.00 -0.02 0.06
497 -1.45 5.45 -100.92 -2.55 2.55 10.24 -0.02 -0.02 0.05
498 -1.45 5.45 -100.92 -2.71 2.71 10.24 -0.03 -0.08 0.05
499 -1.45 5.45 -100.92 -2.63 2.47 10.16 -0.04 -0.11 0.06
500 -1.45 5.45 -100.92 -2.51 2.51 10.28 -0.07 -0.12 0.04
501 -1.64 5.73 -100.82 -2.59 2.63 10.32 -0.07 -0.09 0.01
502 -1.64 5.73 -100.82 -2.63 2.55 10.28 -0.08 -0.07 -0.01
503 -1.64 5.73 -100.82 -2.75 2.51 10.20 -0.07 -0.07 -0.03
504 -1.64 5.73 -100.82 -2.86 2.59 10.16 -0.06 -0.04 -0.04
505 -1.64 5.73 -100.82 -2.63 2.51 10.12 -0.05 0.00 -0.07
506 -1.64 5.73 -100.82 -2.55 2.51 10.24 -0.04 0.02 -0.07
507 -1.73 5.91 -100.82 -2.47 2.55 10.20 -0.04 0.02 -0.07
508 -1.73 5.91 -100.82 -2.47 2.47 10.24 -0.03 0.02 -0.08
509 -1.73 5.91 -100.82 -2.51 2.47 10.16 -0.03 -0.04 -0.05
510 -1.73 5.91 -100.82 -2.51 2.43 10.24 -0.04 -0.08 -0.05
511 -1.73 5.91 -100.82 -2.63 2.55 10.20 -0.03 -0.11 -0.07
512 -1.73 5.91 -100.82 -2.55 2.59 10.12 -0.02 -0.12 -0.10
513 -1.73 5.91 -100.82 -2.47 2.47 10.32 0.01 -0.10 -0.13
514 -2.36 5.91 -100.92 -2.43 2.55 10.40 0.02 -0.06 -0.16
515 -2.36 5.91 -100.92 -2.35 2.51 10.40 0.02 -0.06 -0.20
516 -2.36 5.91 -100.92 -2.43 2.63 10.36 0.03 -0.08 -0.23
517 -2.36 5.91 -100.92 -2.43 2.47 10.32 0.04 -0.11 -0.27
518 -2.36 5.91 -100.92 -2.63 2.63 10.28 0.06 -0.12 -0.33
519 -2.36 5.91 -100.92 -2.59 2.59 10.40 0.06 -0.12 -0.41
520 -2.36 5.91 -100.92 -2.59 2.63 10.40 0.06 -0.10 -0.41
521 -2.82 6.00 -101.22 -2.55 2.63 10.36 0.03 -0.09 -0.48
522 -2.82 6.00 -101.22 -2.51 2.51 10.28 0.00 -0.08 -0.54
523 -2.82 6.00 -101.22 -2.67 2.43 10.24 -0.01 -0.06 -0.58
524 -2.82 6.00 -101.22 -2.55 2.59 10.24 0.03 -0.02 -0.62
525 -2.82 6.00 -101.22 -2.59 2.59 10.24 0.08 0.07 -0.70
526 -2.82 6.00 -101.22 -2.51 2.43 10.24 0.12 0.14 -0.77
527 -2.91 5.55 -101.43 -2.63 2.31 10.47 0.19 0.16 -0.84
528 -2.91 5.55 -101.43 -2.59 2.63 10.12 0.25 0.18 -0.91
529 -2.91 5.55 -101.43 -2.67 2.43 10.28 0.30 0.15 -0.99
530 -2.91 5.55 -101.43 -2.86 2.08 10.40 0.30 0.15 -0.99
531 -2.91 5.55 -101.43 -3.02 2.67 9.81 0.33 0.10 -1.05
532 -2.91 5.55 -101.43 -3.14 2.71 9.85 0.34 0.10 -1.13
533 -2.91 5.55 -101.43 -2.94 2.43 10.08 0.38 0.15 -1.23
534 -3.18 4.73 -101.63 -2.98 2.59 10.28 0.39 0.26 -1.31
535 -3.18 4.73 -101.63 -2.82 2.59 10.40 0.37 0.32 -1.38
536 -3.18 4.73 -101.63 -2.75 2.51 10.32 0.30 0.24 -1.44
537 -3.18 4.73 -101.63 -3.18 2.59 10.04 0.28 0.13 -1.49
538 -3.18 4.73 -101.63 -3.26 2.43 10.24 0.24 0.05 -1.56
539 -3.18 4.73 -101.63 -3.26 2.20 10.12 0.24 0.05 -1.63
540 -3.18 4.73 -101.63 -3.33 2.31 10.16 0.08 0.01 -1.64
541 -3.64 4.27 -101.53 -3.45 2.24 10.04 -0.07 0.07 -1.78
542 -3.64 4.27 -101.53 -3.53 2.04 9.77 -0.07 0.19 -1.91
543 -3.64 4.27 -101.53 -3.65 1.77 9.89 0.05 0.30 -2.04
544 -3.64 4.27 -101.53 -3.80 1.96 9.73 0.15 0.43 -2.18
545 -3.64 4.27 -101.53 -3.61 2.24 10.20 0.33 0.56 -2.33
546 -3.64 4.27 -101.53 -3.57 2.08 10.16 0.50 0.63 -2.38
547 -3.64 4.27 -101.53 -4.00 2.04 10.04 0.61 0.64 -2.41
548 -3.00 3.18 -101.33 -3.84 2.00 10.24 0.77 0.62 -2.42
549 -3.00 3.18 -101.33 -4.00 2.16 10.12 0.77 0.62 -2.42
550 -3.00 3.18 -101.33 -3.96 2.16 10.12 0.86 0.50 -2.40
551 -3.00 3.18 -101.33 -4.24 2.28 10.47 0.93 0.40 -2.37
552 -3.00 3.18 -101.33 -4.31 2.04 10.32 0.75 0.23 -2.29
553 -3.00 3.18 -101.33 -4.55 2.00 10.08 0.34 0.02 -2.26
554 -3.00 3.18 -101.33 -4.20 1.73 10.08 -0.06 -0.15 -2.21
555 -3.00 3.18 -101.33 -3.73 1.57 10.00 -0.39 -0.30 -2.19
556 -3.00 3.18 -101.33 -3.37 1.14 9.77 -0.43 -0.31 -2.21
557 -3.00 3.18 -101.33 -0.75 -0.51 10.12 -0.21 -0.17 -2.32
558 -3.00 3.18 -101.33 -1.57 -0.47 10.24 0.05 -0.05 -2.30
559 -3.00 3.18 -101.33 -4.47 0.78 10.36 0.13 -0.00 -2.32
560 -3.00 3.18 -101.33 -4.31 1.02 9.85 0.13 -0.00 -2.32
561 -3.91 2.64 -101.43 -4.86 1.14 9.85 0.15 -0.01 -2.36
562 -3.91 2.64 -101.43 -4.51 1.14 10.08 0.12 -0.09 -2.32
563 -3.91 2.64 -101.43 -3.61 0.47 9.92 0.09 -0.16 -2.29
564 -3.91 2.64 -101.43 -4.55 1.45 9.61 0.08 -0.21 -2.31
565 -3.91 2.64 -101.43 -4.08 0.86 10.08 0.11 -0.21 -2.32
566 -3.91 2.64 -101.43 -4.67 1.06 10.28 0.16 -0.27 -2.22
567 -3.91 2.64 -101.43 -4.00 0.71 10.32 -0.20 -0.50 -2.02
568 -5.36 2.64 -101.63 -3.73 0.35 10.24 -0.73 -0.72 -1.91
569 -5.36 2.64 -101.63 -4.28 0.59 10.04 -1.06 -0.76 -1.91
570 -5.36 2.64 -101.63 -4.04 0.12 9.69 -1.18 -0.66 -1.93
571 -5.36 2.64 -101.63 -4.00 -0.20 9.92 -1.18 -0.66 -1.93
572 -5.36 2.64 -101.63 -3.80 -0.04 10.12 -1.05 -0.46 -1.98
573 -5.36 2.64 -101.63 -3.77 -0.35 9.96 -0.83 -0.28 -2.05
574 0.00 0.00 0.00 -3.88 -0.51 9.92 -0.46 -0.09 -2.05
575 -7.00 3.91 -101.53 -3.96 -0.78 9.77 -0.04 0.13 -2.08
576 -7.00 3.91 -101.53 -4.20 -0.82 9.61 0.29 0.35 -2.24
577 -7.00 3.91 -101.53 -4.82 -0.43 9.85 0.58 0.56 -2.45
578 -7.00 3.91 -101.53 -5.02 -0.43 10.83 0.56 0.56 -2.55
579 -7.00 3.91 -101.53 -4.24 -0.67 10.63 -0.10 0.16 -2.40
580 -7.00 3.91 -101.53 -3.77 -0.47 10.36 -0.79 -0.26 -2.23
581 -7.64 3.91 -101.22 -3.61 -0.82 9.73 -1.08 -0.41 -2.17
582 -7.64 3.91 -101.22 -3.61 -1.26 10.08 -1.16 -0.36 -2.15
583 -7.64 3.91 -101.22 -3.53 -1.26 10.12 -1.16 -0.36 -2.23
584 -7.64 3.91 -101.22 -3.45 -0.94 9.85 -1.02 -0.21 -2.22
585 -7.64 3.91 -101.22 -3.61 -1.45 10.04 -0.67 -0.04 -2.24
586 -7.64 3.91 -101.22 -3.57 -1.80 9.73 -0.11 0.09 -2.10
587 -7.64 3.91 -101.22 -3.77 -1.77 9.92 0.40 0.17 -2.03
588 -8.55 3.82 -101.43 -3.84 -1.77 10.20 0.83 0.23 -2.03
589 -8.55 3.82 -101.43 -4.12 -1.65 10.59 0.92 0.19 -2.03
590 -8.55 3.82 -101.43 -3.69 -1.65 10.43 0.60 -0.05 -1.93
591 -8.55 3.82 -101.43 -3.37 -1.73 10.20 0.16 -0.34 -1.81
592 -8.55 3.82 -101.43 -3.37 -1.41 10.32 -0.12 -0.45 -1.78
593 -8.55 3.82 -101.43 -3.22 -1.49 10.28 -0.23 -0.46 -1.75
594 -9.82 3.00 -100.92 -3.02 -1.84 9.85 -0.36 -0.45 -1.70
595 -9.82 3.00 -100.92 -3.18 -1.41 10.20 -0.32 -0.39 -1.69
596 -9.82 3.00 -100.92 -2.55 -1.80 10.20 -0.04 -0.26 -1.62
597 -9.82 3.00 -100.92 -2.79 -1.92 10.16 -0.04 -0.26 -1.62
598 -9.82 3.00 -100.92 -2.94 -2.39 10.16 0.27 -0.12 -1.63
599 -9.82 3.00 -100.92 -2.98 -2.47 9.96 0.47 -0.02 -1.73
600 -9.82 3.00 -100.92 -2.98 -2.59 9.85 0.58 0.08 -1.86
601 -10.18 1.36 -100.82 -3.14 -2.43 10.16 0.55 0.18 -2.03
602 -10.18 1.36 -100.82 -3.10 -2.47 10.28 0.50 0.25 -2.18
603 -10.18 1.36 -100.82 -2.86 -1.73 10.51 0.56 0.26 -2.30
604 -10.18 1.36 -100.82 -2.67 -1.10 10.51 0.53 0.27 -2.32
605 -10.18 1.36 -100.82 -2.63 -1.41 10.28 0.42 0.18 -2.14
606 -10.18 1.36 -100.82 -2.55 -2.04 10.16 0.28 0.04 -1.91
607 -10.09 -0.45 -100.82 -2.67 -2.51 10.20 0.21 0.01 -1.93
608 -10.09 -0.45 -100.82 -2.55 -2.59 9.89 0.17 0.08 -2.21
609 -10.09 -0.45 -100.82 -3.06 -2.00 10.28 0.20 0.15 -2.54
610 -10.09 -0.45 -100.82 -3.14 -1.49 10.75 0.41 0.11 -2.58
611 -10.09 -0.45 -100.82 -2.43 -2.71 10.28 0.41 0.11 -2.42
612 -10.09 -0.45 -100.82 -2.35 -2.59 9.96 0.87 -0.10 -2.39
613 -10.09 -0.45 -100.82 -2.43 -1.84 10.24 1.40 -0.28 -2.35
614 -10.00 -4.73 -100.51 -2.55 -1.92 10.47 1.72 -0.28 -2.38
615 -10.00 -4.73 -100.51 -2.86 -1.45 10.59 1.75 -0.21 -2.39
616 -10.00 -4.73 -100.51 -2.79 -1.02 10.43 1.56 -0.13 -2.49
617 -10.00 -4.73 -100.51 -1.41 -1.18 10.32 1.26 -0.14 -2.50
618 -10.00 -4.73 -100.51 -2.63 0.00 10.67 1.04 -0.17 -2.32
619 -10.00 -4.73 -100.51 -2.08 -0.27 10.55 0.99 -0.14 -2.05
620 -10.00 -8.55 -100.61 -1.92 -0.71 10.67 0.79 -0.19 -1.63
621 -10.00 -8.55 -100.61 -1.53 -1.41 10.40 0.51 -0.29 -1.18
622 -10.00 -8.55 -100.61 -1.18 -2.24 10.12 0.38 -0.33 -0.86
623 -10.00 -8.55 -100.61 -0.67 -2.86 9.89 0.34 -0.24 -1.06
624 -10.00 -8.55 -100.61 -1.29 -2.67 10.75 0.37 -0.07 -1.57
625 -10.00 -8.55 -100.61 -1.80 -1.77 10.94 0.35 -0.04 -1.70
626 -10.00 -8.55 -100.61 -1.88 -1.06 10.55 0.26 -0.09 -1.63
627 -9.55 -9.73 -99.59 -2.12 -0.67 10.59 0.14 -0.05 -1.49
628 -9.55 -9.73 -99.59 -2.31 -0.27 10.63 0.09 0.03 -1.32
629 -9.55 -9.73 -99.59 -2.12 -0.39 10.47 -0.06 0.04 -1.10
630 -9.55 -9.73 -99.59 -1.73 -0.51 10.36 -0.10 0.02 -0.92
631 -9.55 -9.73 -99.59 -1.77 -0.59 10.51 -0.12 0.02 -0.92
632 -9.55 -9.73 -99.59 -1.41 -0.90 10.55 -0.09 0.01 -0.74
633 -9.00 -10.09 -100.20 -1.33 -1.65 10.71 -0.08 0.03 -0.55
634 -9.00 -10.09 -100.20 -1.49 -1.84 10.90 -0.07 0.12 -0.34
635 -9.00 -10.09 -100.20 -1.45 -2.00 10.98 -0.14 0.19 -0.25
636 -9.00 -10.09 -100.20 -1.53 -2.20 10.98 -0.26 0.19 -0.23
637 -9.00 -10.09 -100.20 -1.61 -1.77 10.90 -0.31 0.09 -0.26
638 -9.00 -10.09 -100.20 -1.69 -1.61 10.83 -0.35 -0.09 -0.28
639 -9.00 -10.09 -100.20 -1.69 -1.65 10.90 -0.30 -0.22 -0.30
640 -9.00 -9.64 -100.10 -1.73 -1.57 11.14 -0.19 -0.29 -0.39
641 -9.00 -9.64 -100.10 -1.53 -1.45 10.67 -0.09 -0.34 -0.43
642 -9.00 -9.64 -100.10 -1.69 -1.45 10.71 0.05 -0.34 -0.39
643 -9.00 -9.64 -100.10 -1.45 -1.53 10.94 0.17 -0.33 -0.36
644 -9.00 -9.64 -100.10 -1.18 -1.69 10.59 0.22 -0.37 -0.33
645 -9.00 -9.64 -100.10 -0.98 -1.84 10.75 0.19 -0.39 -0.28
646 -9.91 -10.09 -99.80 -1.10 -1.61 10.43 0.18 -0.41 -0.21
647 -9.91 -10.09 -99.80 -1.10 -1.73 10.67 0.21 -0.42 -0.17
648 -9.91 -10.09 -99.80 -1.18 -1.41 10.67 0.22 -0.42 -0.20
649 -9.91 -10.09 -99.80 -1.06 -1.41 10.90 0.24 -0.39 -0.22
650 -9.91 -10.09 -99.80 -1.10 -1.22 10.71 0.24 -0.37 -0.27
651 -9.91 -10.09 -99.80 -1.10 -1.10 10.28 0.22 -0.37 -0.27
652 0.00 0.00 0.00 -0.94 -1.14 10.79 0.12 -0.32 -0.25
653 -10.64 -10.73 -99.69 -0.86 -1.26 10.79 0.07 -0.25 -0.19
654 -10.64 -10.73 -99.69 -0.86 -1.18 10.59 0.05 -0.22 -0.16
655 -10.64 -10.73 -99.69 -0.86 -1.26 10.90 0.03 -0.20 -0.11
656 -10.64 -10.73 -99.69 -0.67 -1.41 10.67 0.10 -0.21 -0.06
657 -10.64 -10.73 -99.69 -0.71 -1.53 10.51 0.17 -0.26 -0.06
658 -10.64 -10.73 -99.69 -0.67 -1.49 10.59 0.11 -0.30 -0.10
659 -11.00 -11.09 -99.39 -0.63 -1.37 10.59 0.04 -0.28 -0.10
660 -11.00 -11.09 -99.39 -0.71 -1.18 10.59 0.01 -0.24 -0.08
661 -11.00 -11.09 -99.39 -0.71 -1.14 10.55 -0.01 -0.19 -0.06
662 -11.00 -11.09 -99.39 -0.71 -1.33 10.51 -0.02 -0.16 -0.03
663 -11.00 -11.09 -99.39 -0.63 -1.33 10.40 0.00 -0.12 -0.00
664 -11.00 -11.09 -99.39 -0.63 -1.29 10.71 0.06 -0.11 0.02
665 -11.82 -11.18 -99.18 -0.63 -1.41 10.79 0.16 -0.13 0.01
666 -11.82 -11.18 -99.18 -0.47 -1.45 10.71 0.20 -0.19 -0.05
667 -11.82 -11.18 -99.18 -0.39 -1.33 10.71 0.16 -0.19 -0.05
668 -11.82 -11.18 -99.18 -0.51 -1.29 10.71 0.13 -0.13 -0.01
669 -11.82 -11.18 -99.18 -0.55 -1.14 10.71 0.09 -0.11 0.00
670 -11.82 -11.18 -99.18 -0.47 -1.18 10.83 0.05 -0.17 0.04
671 -11.82 -11.18 -99.18 -0.47 -1.10 10.83 0.05 -0.17 0.08
672 -12.27 -11.55 -98.98 -0.39 -1.18 10.83 0.01 -0.28 0.08
673 -12.27 -11.55 -98.98 -0.27 -1.29 10.75 0.02 -0.36 0.09
674 -12.27 -11.55 -98.98 -0.35 -1.14 10.51 0.06 -0.35 0.09
675 -12.27 -11.55 -98.98 -0.31 -1.22 10.63 0.07 -0.30 0.09
676 -12.27 -11.55 -98.98 -0.24 -1.18 10.55 0.07 -0.27 0.10
677 -12.27 -11.55 -98.98 -0.24 -1.10 10.51 0.10 -0.24 0.09
678 -12.91 -11.82 -98.57 -0.24 -1.06 10.63 0.15 -0.18 0.06
679 -12.91 -11.82 -98.57 -0.16 -1.06 10.67 0.13 -0.14 0.03
680 -12.91 -11.82 -98.57 -0.24 -1.10 10.67 0.07 -0.10 0.01
681 -12.91 -11.82 -98.57 -0.31 -0.94 10.67 0.04 -0.04 0.01
682 -12.91 -11.82 -98.57 -0.31 -0.86 10.63 0.01 -0.05 -0.01
683 -12.91 -11.82 -98.57 -0.20 -0.98 10.67 -0.01 -0.09 -0.00
684 -12.91 -11.82 -98.57 -0.16 -1.10 10.79 -0.03 -0.12 -0.01
685 -12.91 -11.82 -98.57 -0.12 -1.18 10.71 -0.06 -0.09 0.01
686 -12.91 -11.82 -98.57 -0.20 -1.06 10.79 -0.06 -0.02 0.04
687 -12.91 -11.82 -98.57 -0.20 -1.02 10.87 -0.04 0.03 0.06
688 -12.91 -11.82 -98.57 -0.16 -1.06 10.51 0.01 0.04 0.06
689 -12.91 -11.82 -98.57 -0.20 -0.90 10.51 0.07 0.04 0.08
690 -12.91 -11.82 -98.57 -0.24 -0.86 10.51 0.07 0.04 0.13
691 -13.36 -12.09 -98.47 -0.20 -1.02 10.43 0.10 0.08 0.13
692 -13.36 -12.09 -98.47 -0.12 -1.14 10.59 0.12 0.16 0.18
693 -13.36 -12.09 -98.47 -0.24 -1.10 10.47 0.13 0.21 0.20
694 -13.36 -12.09 -98.47 -0.12 -1.14 10.87 0.11 0.19 0.17
695 -13.36 -12.09 -98.47 -0.16 -1.02 10.43 0.10 0.13 0.13
696 -13.36 -12.09 -98.47 -0.24 -0.94 10.55 0.09 0.08 0.12
697 -13.36 -12.09 -98.47 -0.24 -0.86 10.43 0.06 0.09 0.14
698 -13.36 -12.09 -98.47 -0.27 -0.82 10.67 0.03 0.13 0.19
699 -13.36 -12.09 -98.47 -0.35 -0.82 10.67 0.03 0.22 0.27
700 -13.36 -12.09 -98.47 -0.35 -0.78 10.63 0.09 0.32 0.31
701 -13.36 -12.09 -98.47 -0.47 -0.94 10.55 0.15 0.39 0.34
702 -13.36 -12.09 -98.47 -0.55 -0.94 10.83 0.17 0.45 0.34
703 -13.36 -12.09 -98.47 -0.51 -1.02 10.90 0.17 0.48 0.31
704 -12.09 -12.00 -98.06 -0.24 -1.26 10.63 0.17 0.48 0.31
705 -12.09 -12.00 -98.06 -0.16 -1.29 10.32 0.12 0.45 0.28
706 -12.09 -12.00 -98.06 -0.27 -1.33 11.57 -0.06 0.33 0.27
707 -12.09 -12.00 -98.06 -0.55 -1.53 11.96 -0.32 0.14 0.15
708 -12.09 -12.00 -98.06 -0.35 -0.82 11.41 -0.39 0.01 -0.12
709 -12.09 -12.00 -98.06 -0.75 -0.86 9.77 -0.20 -0.59 -0.01
710 -12.09 -12.00 -98.06 -0.35 -0.82 10.75 -0.05 -1.08 0.16
711 -13.45 -11.82 -98.27 -0.55 -0.59 10.63 0.07 -0.78 0.21
712 -13.45 -11.82 -98.27 -0.59 -0.59 10.67 0.16 -0.32 0.31
713 -13.45 -11.82 -98.27 -0.35 -0.75 10.83 0.21 -0.02 0.31
714 -13.45 -11.82 -98.27 -0.20 -1.02 10.71 0.30 -0.05 0.27
715 -13.45 -11.82 -98.27 -0.24 -1.06 10.71 0.37 -0.20 0.25
716 -13.45 -11.82 -98.27 -0.04 -1.14 10.75 0.32 -0.25 0.25
717 -13.82 -12.73 -97.86 -0.08 -1.02 10.83 0.18 -0.21 0.19
718 -13.82 -12.73 -97.86 -0.04 -0.98 10.79 0.06 -0.14 0.10
719 -13.82 -12.73 -97.86 -0.16 -0.78 11.02 -0.04 -0.09 0.01
720 -13.82 -12.73 -97.86 -0.27 -0.71 10.94 -0.10 -0.01 -0.02
721 -13.82 -12.73 -97.86 -0.24 -0.63 10.98 -0.09 0.03 -0.03
722 -13.82 -12.73 -97.86 -0.08 -0.67 10.75 -0.05 0.04 -0.01
723 -14.09 -12.64 -97.55 -0.16 -0.63 10.59 -0.07 0.04 0.03
724 -14.09 -12.64 -97.55 0.12 -0.71 10.59 -0.04 0.01 0.02
725 -14.09 -12.64 -97.55 -0.20 -0.71 10.98 -0.04 -0.04 0.00
726 -14.09 -12.64 -97.55 -0.16 -0.86 11.06 -0.06 -0.05 -0.00
727 -14.09 -12.64 -97.55 -0.16 -0.82 10.98 -0.09 -0.05 -0.02
728 -14.09 -12.64 -97.55 -0.08 -0.75 10.83 -0.09 -0.04 -0.04
729 -14.09 -12.64 -97.55 -0.04 -0.86 10.71 -0.06 -0.03 -0.01
730 -14.09 -12.27 -97.86 -0.08 -0.78 10.67 -0.05 -0.02 0.02
731 -14.09 -12.27 -97.86 -0.08 -0.82 10.63 -0.03 0.01 0.04
732 -14.09 -12.27 -97.86 -0.16 -0.82 10.79 0.02 0.03 0.06
733 -14.09 -12.27 -97.86 -0.20 -0.71 10.83 -0.02 0.01 -0.05
734 -14.09 -12.27 -97.86 -0.16 -0.75 10.79 -0.09 0.01 -0.14
735 -14.09 -12.27 -97.86 -0.12 -0.78 10.83 -0.10 0.02 -0.11
736 -14.00 -12.18 -97.65 -0.20 -0.90 10.75 -0.11 0.02 -0.09
737 -14.00 -12.18 -97.65 -0.12 -0.98 10.79 -0.13 0.01 -0.11
738 -14.00 -12.18 -97.65 0.00 -1.14 10.59 -0.11 0.02 -0.10
739 -14.00 -12.18 -97.65 0.04 -1.14 10.67 -0.10 0.04 -0.09
740 -14.00 -12.18 -97.65 0.00 -1.06 10.59 -0.08 0.05 -0.06
741 -14.00 -12.18 -97.65 -0.04 -1.10 10.67 -0.05 0.05 0.00
742 -14.00 -12.18 -97.65 -0.16 -0.82 10.79 0.01 0.03 0.05
743 -13.82 -12.09 -97.55 -0.24 -0.71 10.79 -0.00 0.02 0.05
744 -13.82 -12.09 -97.55 -0.20 -0.86 10.75 -0.00 0.02 -0.03
745 -13.82 -12.09 -97.55 -0.04 -0.86 10.67 -0.08 0.01 -0.01
746 -13.82 -12.09 -97.55 -0.08 -0.82 10.40 -0.10 0.02 -0.06
747 -13.82 -12.09 -97.55 -0.08 -0.98 10.63 -0.09 0.01 -0.04
748 -13.82 -12.09 -97.55 -0.20 -0.86 10.79 -0.05 0.01 0.01
749 -13.91 -12.27 -97.86 -0.16 -0.86 10.75 0.02 0.04 0.07
750 -13.91 -12.27 -97.86 -0.08 -0.94 10.67 0.07 0.06 0.11
751 -13.91 -12.27 -97.86 -0.16 -1.06 10.90 0.06 0.05 0.10
752 -13.91 -12.27 -97.86 -0.12 -1.06 10.87 0.02 0.05 0.06
753 -13.91 -12.27 -97.86 -0.12 -1.02 10.87 -0.02 0.05 0.01
754 -13.91 -12.27 -97.86 -0.12 -0.94 10.75 -0.09 0.04 -0.04
755 -13.64 -11.91 -98.06 -0.12 -0.94 10.79 -0.15 0.04 -0.07
756 -13.64 -11.91 -98.06 0.00 -1.02 10.79 -0.17 0.03 -0.09
757 -13.64 -11.91 -98.06 0.00 -1.10 10.59 -0.16 0.04 -0.06
758 -13.64 -11.91 -98.06 0.08 -1.02 10.63 -0.14 0.05 -0.01
759 -13.64 -11.91 -98.06 0.08 -1.06 10.59 -0.11 0.04 0.03
760 -13.64 -11.91 -98.06 -0.08 -0.86 10.67 -0.10 0.03 -0.01
761 -13.64 -11.91 -98.06 -0.04 -0.98 10.59 -0.09 0.04 -0.01
762 -13.55 -11.82 -97.65 0.12 -1.14 10.55 -0.09 0.04 -0.02
763 -13.55 -11.82 -97.65 0.04 -1.10 10.51 -0.07 0.04 -0.02
764 -13.55 -11.82 -97.65 -0.08 -0.98 10.43 -0.10 0.02 -0.01
765 -13.55 -11.82 -97.65 -0.04 -0.98 10.94 -0.12 0.01 -0.01
766 -13.55 -11.82 -97.65 -0.16 -0.94 10.59 -0.13 0.03 -0.03
767 -13.55 -11.82 -97.65 -0.08 -0.98 10.47 -0.14 0.05 -0.06
768 -13.82 -11.27 -98.16 -0.16 -1.10 10.40 -0.13 0.06 -0.06
769 -13.82 -11.27 -98.16 -0.16 -1.14 10.51 -0.09 0.05 -0.07
770 -13.82 -11.27 -98.16 -0.20 -1.18 10.71 -0.07 0.03 -0.11
771 -13.82 -11.27 -98.16 -0.24 -1.29 10.71 -0.08 0.03 -0.16
772 -13.82 -11.27 -98.16 -0.20 -1.33 10.59 -0.09 0.03 -0.17
773 -13.82 -11.27 -98.16 -0.12 -1.29 10.75 -0.10 0.02 -0.17
774 -13.82 -11.27 -98.16 -0.08 -1.14 10.75 -0.08 0.01 -0.10
775 -13.55 -11.55 -97.86 -0.20 -1.18 10.55 -0.05 0.00 -0.05
776 -13.55 -11.55 -97.86 -0.24 -1.06 10.71 0.01 0.02 -0.01
777 -13.55 -11.55 -97.86 -0.20 -1.10 10.79 0.03 0.02 0.00
778 -13.55 -11.55 -97.86 -0.16 -1.18 10.90 0.00 0.00 -0.05
779 -13.55 -11.55 -97.86 -0.08 -1.26 10.71 -0.06 -0.01 -0.11
780 -13.55 -11.55 -97.86 0.00 -1.29 10.71 -0.09 -0.01 -0.11
781 -13.73 -11.55 -97.65 0.12 -1.22 10.51 -0.10 -0.01 -0.08
782 -13.73 -11.55 -97.65 0.00 -1.22 10.51 -0.09 -0.00 -0.05
783 -13.73 -11.55 -97.65 0.08 -1.26 10.55 -0.03 0.02 0.03
784 -13.73 -11.55 -97.65 -0.04 -1.22 10.75 -0.03 0.02 0.05
785 -13.73 -11.55 -97.65 -0.08 -1.06 10.83 0.03 0.03 0.05
786 -13.73 -11.55 -97.65 -0.04 -1.14 10.94 0.01 0.01 0.02
787 -13.73 -11.55 -97.65 0.04 -1.14 10.98 0.01 0.02 0.03
788 -13.82 -11.36 -98.06 -0.08 -0.90 11.06 0.07 0.01 0.08
789 -13.82 -11.36 -98.06 -0.08 -0.98 11.14 0.10 -0.02 0.04
790 -13.82 -11.36 -98.06 0.04 -1.14 11.10 0.05 -0.03 -0.04
791 -13.82 -11.36 -98.06 0.27 -1.22 10.79 0.01 0.02 -0.06
792 -13.82 -11.36 -98.06 0.31 -1.18 10.63 -0.02 0.06 -0.06
793 -13.82 -11.36 -98.06 0.12 -1.14 10.63 -0.10 0.03 -0.10
794 -13.64 -11.73 -98.27 0.04 -0.94 10.59 -0.15 0.02 -0.10
795 -13.64 -11.73 -98.27 -0.08 -0.98 10.63 -0.13 0.03 -0.08
796 -13.64 -11.73 -98.27 -0.31 -0.94 10.59 -0.16 0.03 -0.15
797 -13.64 -11.73 -98.27 -0.27 -0.98 10.59 -0.15 0.06 -0.17
798 -13.64 -11.73 -98.27 -0.27 -0.94 10.71 -0.07 0.09 -0.16
799 -13.64 -11.73 -98.27 -0.31 -1.10 10.71 -0.01 0.08 -0.17
800 -13.64 -11.91 -98.06 -2.71 0.08 13.73 0.14 0.05 -0.22
801 -13.64 -11.91 -98.06 -0.67 0.31 11.14 0.14 0.05 -0.29
802 -13.64 -11.91 -98.06 0.27 -1.37 10.87 0.32 0.09 -0.29
803 -13.64 -11.91 -98.06 0.63 -1.49 10.55 0.05 0.26 -0.32
804 -13.64 -11.91 -98.06 0.24 -0.86 10.28 0.02 0.31 -0.28
805 -13.64 -11.91 -98.06 -0.12 -0.63 10.04 -0.05 0.20 -0.24
806 -13.64 -11.91 -98.06 -0.24 -1.37 10.79 0.16 0.15 -0.03
807 -12.91 -12.18 -97.86 0.75 -2.20 10.55 0.40 0.12 0.15
808 -12.91 -12.18 -97.86 1.69 -2.39 8.12 -0.06 0.02 -0.10
809 -12.91 -12.18 -97.86 -1.10 -1.80 11.77 -0.36 0.12 -0.09
810 -12.91 -12.18 -97.86 -0.90 -0.63 10.83 0.12 0.00 0.02
811 -12.91 -12.18 -97.86 -0.47 -1.33 11.26 0.40 -0.10 0.03
812 -12.91 -12.18 -97.86 -0.08 -1.18 10.43 0.48 -0.10 -0.01
813 -12.91 -12.82 -97.96 0.31 -1.33 10.08 0.44 0.14 -0.03
814 -12.91 -12.82 -97.96 0.47 -1.61 10.24 0.23 0.13 -0.16
815 -12.91 -12.82 -97.96 0.20 -1.53 10.43 0.19 -0.03 -0.17
816 -12.91 -12.82 -97.96 -0.12 -1.22 10.63 0.27 -0.16 -0.05
817 -12.91 -12.82 -97.96 -0.24 -0.78 10.79 0.27 -0.16 -0.01
818 -12.91 -12.82 -97.96 -0.55 -0.39 10.98 0.20 -0.19 -0.02
819 -12.91 -12.82 -97.96 -0.55 -0.31 10.71 0.07 -0.09 -0.02
820 -13.18 -13.27 -97.96 -0.31 -0.43 10.67 -0.03 0.00 -0.02
821 -13.18 -13.27 -97.96 -0.20 -0.47 10.71 -0.12 0.02 -0.09
822 -13.18 -13.27 -97.96 -0.04 -0.71 10.59 -0.13 0.02 -0.10
823 -13.18 -13.27 -97.96 0.08 -0.67 10.47 -0.09 0.02 -0.12
824 -13.18 -13.27 -97.96 0.04 -0.71 10.51 -0.09 0.02 -0.14
825 -13.18 -13.27 -97.96 0.00 -0.59 10.83 -0.07 0.03 -0.15
826 -13.18 -13.18 -97.86 -0.08 -0.55 10.59 -0.06 0.01 -0.14
827 -13.18 -13.18 -97.86 0.00 -0.63 10.63 -0.06 0.00 -0.15
828 -13.18 -13.18 -97.86 -0.08 -0.59 10.87 -0.08 -0.03 -0.17
829 -13.18 -13.18 -97.86 -0.04 -0.59 10.94 -0.11 -0.04 -0.18
830 -13.18 -13.18 -97.86 -0.08 -0.55 11.02 -0.14 -0.04 -0.15
831 -13.18 -13.18 -97.86 -0.08 -0.67 11.02 -0.13 -0.04 -0.14
832 -13.18 -13.18 -97.86 -0.04 -0.67 10.98 -0.11 -0.02 -0.13
833 -13.09 -13.09 -97.86 0.04 -0.86 10.75 -0.08 0.02 -0.08
834 -13.09 -13.09 -97.86 0.12 -0.90 10.90 -0.07 0.06 -0.04
835 -13.09 -13.09 -97.86 0.12 -0.90 10.94 -0.08 0.07 -0.05
836 -13.09 -13.09 -97.86 -0.12 -0.86 10.98 -0.11 0.07 -0.11
837 -13.09 -13.09 -97.86 0.20 -0.51 9.73 -0.17 0.02 -0.19
838 -13.09 -13.09 -97.86 0.43 -1.14 10.28 -0.16 -0.50 -0.30
839 -13.36 -13.36 -97.86 0.08 -1.10 10.90 -0.16 -0.89 -0.25
840 -13.36 -13.36 -97.86 0.67 -1.88 11.30 -0.05 -0.89 -0.25
841 -13.36 -13.36 -97.86 0.24 -1.18 10.51 0.09 -0.51 -0.00
842 -13.36 -13.36 -97.86 -0.08 -0.94 10.83 0.02 0.27 0.34
843 -13.36 -13.36 -97.86 -0.08 -0.94 10.71 -0.14 0.50 0.31
844 -13.36 -13.36 -97.86 0.00 -0.71 10.75 -0.40 0.39 0.05
845 -13.36 -13.36 -97.86 -0.08 -0.67 10.47 -0.49 0.15 -0.09
846 -13.36 -13.36 -97.86 0.24 -0.90 10.71 -0.47 0.08 -0.08
847 -13.36 -13.36 -97.86 0.08 -1.37 10.51 -0.47 0.01 -0.15
848 -13.36 -13.36 -97.86 0.12 -1.37 10.59 -0.33 -0.10 -0.15
849 -13.36 -13.36 -97.86 0.08 -1.37 10.55 -0.15 -0.13 -0.12
850 -13.36 -13.36 -97.86 -0.12 -0.98 10.67 0.01 -0.12 -0.07
851 -13.36 -13.36 -97.86 -0.12 -0.90 10.67 0.05 -0.09 -0.19
852 -12.91 -12.00 -98.16 -0.04 -1.02 10.59 -0.22 0.00 -0.48
853 -12.91 -12.00 -98.16 0.04 -1.45 11.14 -0.41 0.10 -0.54
854 -12.91 -12.00 -98.16 0.04 -1.22 10.90 -0.24 0.24 -0.25
855 -12.91 -12.00 -98.16 0.08 -1.26 10.67 -0.01 0.26 -0.08
856 -12.91 -12.00 -98.16 -0.04 -1.41 10.94 0.09 0.22 -0.08
857 -12.91 -12.00 -98.16 -0.16 -1.14 11.10 0.14 0.30 -0.12
858 -12.18 -12.00 -98.27 -0.16 -1.14 10.94 0.03 0.53 -0.29
859 -12.18 -12.00 -98.27 0.12 -1.33 11.06 0.00 0.53 -0.29
860 -12.18 -12.00 -98.27 0.12 -1.22 10.43 -0.06 0.61 -0.55
861 -12.18 -12.00 -98.27 0.08 -0.94 10.12 0.15 0.51 -0.75
862 -12.18 -12.00 -98.27 0.04 -1.02 10.24 0.38 0.25 -0.66
863 -12.18 -12.00 -98.27 -0.59 -0.59 11.14 0.44 0.15 -0.61
864 -12.18 -12.00 -98.27 -0.20 -0.78 10.51 0.38 0.19 -0.72
865 -10.64 -13.27 -97.65 -0.20 -0.82 10.67 0.36 0.14 -0.74
866 -10.64 -13.27 -97.65 -0.55 -0.63 10.94 0.38 0.08 -0.81
867 -10.64 -13.27 -97.65 -0.08 -1.10 11.14 0.26 0.03 -0.95
868 -10.64 -13.27 -97.65 0.27 -1.61 10.90 0.18 0.07 -0.99
869 -10.64 -13.27 -97.65 0.24 -1.41 10.79 0.04 0.05 -1.03
870 -10.64 -13.27 -97.65 0.27 -1.49 11.10 -0.14 -0.10 -1.08
871 -9.91 -13.73 -98.16 0.08 -1.37 11.22 -0.34 -0.10 -1.27
872 -9.91 -13.73 -98.16 -0.08 -1.26 11.14 -0.45 -0.04 -1.55
873 -9.91 -13.73 -98.16 -0.47 -0.82 10.90 -0.44 -0.06 -1.67
874 -9.91 -13.73 -98.16 -0.27 -0.86 10.71 -0.35 -0.14 -1.63
875 -9.91 -13.73 -98.16 -0.12 -0.63 10.63 -0.11 -0.20 -1.40
876 -9.91 -13.73 -98.16 0.00 -0.78 10.51 -0.11 -0.04 -1.11
877 -9.91 -13.73 -98.16 0.04 -0.94 10.51 0.09 -0.05 -1.11
878 -9.00 -14.27 -98.27 0.27 -1.29 10.59 0.23 0.09 -0.89
879 -9.00 -14.27 -98.27 0.67 -1.57 10.83 0.36 0.12 -0.81
880 -9.00 -14.27 -98.27 0.67 -1.49 10.87 0.42 0.08 -0.83
881 -9.00 -14.27 -98.27 0.47 -1.29 10.94 0.30 0.05 -1.11
882 -9.00 -14.27 -98.27 0.35 -1.14 10.87 0.07 0.09 -1.38
883 -9.00 -14.27 -98.27 0.24 -1.06 10.87 -0.22 0.15 -1.63
884 -7.27 -14.09 -97.76 0.59 -0.98 10.67 -0.39 0.27 -1.82
885 -7.27 -14.09 -97.76 0.39 -0.98 10.63 -0.36 0.30 -1.80
886 -7.27 -14.09 -97.76 0.35 -1.06 10.51 -0.32 0.32 -1.79
887 -7.27 -14.09 -97.76 0.00 -1.22 10.87 -0.35 0.32 -1.86
888 -7.27 -14.09 -97.76 0.35 -1.06 10.90 -0.30 0.34 -1.97
889 -7.27 -14.09 -97.76 0.12 -0.86 10.83 -0.30 0.34 -1.99
890 -7.27 -14.09 -97.76 0.31 -1.26 10.98 -0.09 0.21 -1.99
891 -4.82 -14.64 -98.27 0.31 -1.18 11.14 0.09 0.02 -1.95
892 -4.82 -14.64 -98.27 -0.04 -0.78 10.75 0.24 -0.14 -2.03
893 -4.82 -14.64 -98.27 -0.43 -0.98 11.96 0.39 -0.18 -2.09
894 -4.82 -14.64 -98.27 -0.12 -0.04 10.83 0.63 -0.21 -2.06
895 -4.82 -14.64 -98.27 -0.12 -0.39 11.26 0.90 -0.25 -1.92
896 -4.82 -14.64 -98.27 0.00 -0.27 10.79 1.10 -0.24 -1.80
897 -3.91 -17.27 -97.35 0.08 -0.59 11.34 1.18 -0.25 -1.79
898 -3.91 -17.27 -97.35 0.63 -0.55 11.81 1.16 -0.27 -1.88
899 -3.91 -17.27 -97.35 1.29 -0.04 10.98 1.18 -0.33 -2.05
900 -3.91 -17.27 -97.35 0.31 0.04 11.10 0.98 -0.10 -2.01
901 -3.91 -17.27 -97.35 0.98 -0.35 10.12 0.67 -0.10 -2.13
902 -3.91 -17.27 -97.35 1.10 0.04 10.36 0.32 -0.17 -2.07
903 -3.91 -17.27 -97.35 1.06 0.12 10.51 0.32 -0.17 -1.93
904 -2.00 -18.36 -96.84 0.27 0.08 10.59 -0.01 -0.09 -1.93
905 -2.00 -18.36 -96.84 0.35 0.20 10.51 -0.19 -0.09 -1.81
906 -2.00 -18.36 -96.84 0.16 0.20 10.47 -0.22 -0.11 -1.74
907 -2.00 -18.36 -96.84 0.16 -0.04 10.67 -0.19 -0.16 -1.65
908 -2.00 -18.36 -96.84 0.12 0.27 10.51 -0.11 -0.23 -1.60
909 -2.00 -18.36 -96.84 0.31 0.08 10.63 -0.04 -0.23 -1.68
910 -2.00 -18.36 -96.84 0.67 0.04 10.63 0.00 -0.18 -1.74
911 -0.64 -18.18 -97.14 0.75 -0.16 10.87 0.11 -0.16 -1.86
912 -0.64 -18.18 -97.14 0.55 0.12 10.71 0.14 -0.20 -2.07
913 -0.64 -18.18 -97.14 0.59 0.51 10.59 0.00 -0.16 -2.16
914 -0.64 -18.18 -97.14 0.78 0.35 10.79 -0.15 -0.07 -2.10
915 -0.64 -18.18 -97.14 1.06 0.59 10.51 -0.14 -0.01 -1.99
916 -0.64 -18.18 -97.14 0.94 0.55 10.47 -0.14 0.07 -1.77
917 1.36 -17.73 -97.24 1.10 -0.04 11.61 -0.09 0.06 -1.77
918 1.36 -17.73 -97.24 0.51 0.51 10.71 0.01 0.06 -1.51
919 1.36 -17.73 -97.24 0.47 0.27 10.94 0.15 -0.12 -1.49
920 1.36 -17.73 -97.24 0.86 -0.27 11.06 0.19 -0.22 -1.44
921 1.36 -17.73 -97.24 0.71 0.75 10.55 0.18 -0.25 -1.51
922 1.36 -17.73 -97.24 0.98 0.59 10.63 0.20 -0.24 -1.77
923 1.36 -17.73 -97.24 1.41 0.39 10.87 0.16 -0.01 -1.81
924 2.91 -17.09 -96.94 1.26 0.98 10.24 0.20 0.07 -1.85
925 2.91 -17.09 -96.94 1.26 0.98 10.24 0.17 -0.03 -1.91
926 2.91 -17.09 -96.94 1.37 0.55 10.83 0.17 -0.03 -1.95
927 2.91 -17.09 -96.94 1.33 0.78 11.18 0.06 -0.08 -1.92
928 2.91 -17.09 -96.94 1.45 0.90 10.90 -0.06 -0.14 -1.95
929 2.91 -17.09 -96.94 0.55 1.02 10.87 -0.28 -0.05 -2.00
930 2.91 -17.09 -96.94 0.27 0.94 10.75 -0.38 0.13 -1.96
931 4.91 -16.18 -97.45 0.39 0.90 11.06 -0.37 0.29 -1.89
932 4.91 -16.18 -97.45 1.02 0.59 10.90 -0.26 0.40 -1.84
933 4.91 -16.18 -97.45 0.86 0.75 11.06 0.00 0.30 -1.92
934 4.91 -16.18 -97.45 0.90 0.86 11.49 0.15 0.19 -1.98
935 4.91 -16.18 -97.45 1.33 0.78 10.47 0.26 0.03 -1.99
936 4.91 -16.18 -97.45 1.41 0.98 10.43 0.26 0.03 -1.99
937 4.91 -16.18 -97.45 2.00 0.90 10.43 0.33 -0.15 -2.00
938 6.45 -15.73 -97.35 1.18 1.02 10.32 0.30 -0.29 -2.03
939 6.45 -15.73 -97.35 0.47 1.06 10.43 0.32 -0.44 -2.01
940 6.45 -15.73 -97.35 -0.08 1.45 9.77 0.37 -0.48 -1.86
941 6.45 -15.73 -97.35 0.16 0.78 10.63 0.15 -0.38 -1.62
942 6.45 -15.73 -97.35 0.27 0.63 10.71 -0.10 -0.23 -1.37
943 6.45 -15.73 -97.35 0.16 0.78 10.71 -0.18 -0.11 -1.39
944 6.45 -14.91 -97.96 0.20 0.55 10.67 -0.22 0.04 -1.37
945 7.73 -14.91 -97.96 0.16 0.78 10.51 -0.22 0.12 -1.34
946 7.73 -14.91 -97.96 0.27 0.98 10.47 -0.17 0.15 -1.34
947 7.73 -14.91 -97.96 0.51 1.29 10.40 -0.04 0.20 -1.37
948 7.73 -14.91 -97.96 0.43 1.14 10.43 -0.01 0.23 -1.33
949 7.73 -14.91 -97.96 0.59 1.18 10.83 0.04 0.20 -1.17
950 7.73 -14.91 -97.96 0.59 1.33 10.71 0.15 0.13 -0.95
951 9.00 -14.36 -97.96 0.63 1.37 10.71 0.19 0.05 -0.88
952 9.00 -14.36 -97.96 -1.65 3.53 10.32 0.16 0.06 -0.86
953 9.00 -14.36 -97.96 0.31 1.18 10.87 -0.03 0.05 -0.84
954 9.00 -14.36 -97.96 0.35 1.22 10.79 -0.03 0.02 -0.75
955 9.00 -14.36 -97.96 0.55 1.06 10.90 -0.13 0.02 -0.75
956 9.00 -14.36 -97.96 0.00 1.49 10.75 -0.11 0.01 -0.73
957 9.00 -14.36 -97.96 0.47 1.37 10.67 0.03 -0.01 -0.79
958 9.45 -13.45 -97.65 0.71 1.29 10.75 -0.02 0.02 -0.75
959 9.45 -13.45 -97.65 0.55 1.29 10.59 -0.15 0.10 -0.63
960 9.45 -13.45 -97.65 0.71 1.29 10.63 -0.25 0.18 -0.49
961 9.45 -13.45 -97.65 0.67 1.33 10.51 -0.23 0.18 -0.40
962 9.45 -13.45 -97.65 0.51 1.18 10.47 -0.15 0.14 -0.23
963 9.45 -13.45 -97.65 0.43 0.90 10.83 -0.03 0.08 -0.10
964 9.45 -13.45 -97.65 0.12 0.98 10.79 -0.03 0.08 -0.10
965 10.00 -13.36 -98.16 0.04 1.18 10.71 0.03 0.03 -0.10
966 10.00 -13.36 -98.16 0.39 1.10 10.63 -0.03 0.04 -0.10
967 10.00 -13.36 -98.16 0.27 1.06 10.71 -0.12 0.11 -0.02
968 10.00 -13.36 -98.16 0.39 1.06 10.83 -0.09 0.13 0.05
969 10.00 -13.36 -98.16 0.67 1.10 10.75 -0.07 0.11 0.04
970 10.00 -13.36 -98.16 0.63 1.26 10.55 0.02 0.06 -0.02
971 10.00 -13.36 -98.16 0.39 1.22 10.51 0.13 -0.01 -0.14
972 10.36 -13.27 -98.06 0.47 1.10 10.43 0.08 -0.01 -0.18
973 10.36 -13.27 -98.06 0.47 1.10 10.59 0.07 -0.01 -0.16
974 10.36 -13.27 -98.06 0.51 1.10 10.67 0.07 0.00 -0.13
975 10.36 -13.27 -98.06 0.31 1.18 10.51 0.12 0.00 -0.13
976 10.36 -13.27 -98.06 0.31 1.18 10.59 0.10 0.04 -0.12
977 10.36 -13.27 -98.06 0.31 1.18 10.55 0.10 0.08 -0.05
978 10.55 -13.55 -97.86 0.35 1.18 10.55 0.07 0.11 0.07
979 10.55 -13.55 -97.86 0.24 1.29 10.79 0.02 0.14 0.13
980 10.55 -13.55 -97.86 0.47 1.22 10.87 -0.05 0.13 0.15
981 10.55 -13.55 -97.86 0.47 1.14 10.83 -0.05 0.10 0.05
982 10.55 -13.55 -97.86 0.47 1.22 10.59 -0.03 0.09 -0.02
983 10.55 -13.55 -97.86 0.43 1.22 10.87 0.02 0.08 -0.04
984 10.55 -13.55 -97.86 0.27 1.22 10.67 0.02 0.08 -0.04
985 10.82 -13.36 -97.76 0.20 1.18 10.59 0.03 0.08 -0.05
986 10.82 -13.36 -97.76 0.12 1.14 10.98 0.01 0.09 -0.06
987 10.82 -13.36 -97.76 0.16 1.10 10.63 0.04 0.05 -0.05
988 10.82 -13.36 -97.76 0.16 1.26 10.51 0.07 0.04 -0.02
989 10.82 -13.36 -97.76 0.27 1.29 10.67 0.06 0.06 0.05
990 10.82 -13.36 -97.76 0.31 1.29 10.67 -0.03 0.10 0.12
991 10.82 -13.36 -97.76 0.55 1.33 10.79 -0.10 0.12 0.17
992 10.73 -13.55 -97.55 0.39 1.33 10.83 -0.10 0.10 0.15
993 10.73 -13.55 -97.55 0.39 1.33 10.59 -0.10 0.07 0.10
994 10.73 -13.55 -97.55 0.27 1.22 10.67 -0.07 0.07 0.10
995 10.73 -13.55 -97.55 0.20 1.22 10.67 -0.02 0.06 0.05
996 10.73 -13.55 -97.55 0.24 1.26 10.83 0.04 0.05 0.02
997 10.73 -13.55 -97.55 0.16 1.22 10.71 0.07 0.05 -0.01
998 10.73 -13.55 -97.55 0.16 1.26 10.71 0.07 0.07 -0.02
999 10.64 -13.82 -97.45 0.08 1.22 10.71 0.08 0.09 -0.01
1000 10.64 -13.82 -97.45 0.31 1.29 10.55 0.08 0.09 0.02
1001 10.64 -13.82 -97.45 0.39 1.33 10.71 0.11 0.10 0.05
1002 10.64 -13.82 -97.45 0.39 1.33 10.71 0.16 0.08 0.08
1003 10.64 -13.82 -97.45 0.24 1.33 10.71 0.16 0.08 0.08
1004 10.64 -13.82 -97.45 0.27 1.33 10.63 0.12 0.07 0.10
1005 10.64 -13.82 -97.45 0.31 1.37 10.63 0.04 0.07 0.10
1006 10.91 -14.00 -97.65 0.27 1.33 10.94 -0.02 0.06 0.13
1007 10.91 -14.00 -97.65 0.20 1.29 10.71 -0.02 0.05 0.12
1008 10.91 -14.00 -97.65 0.16 1.18 10.94 -0.04 0.08 0.12
1009 10.91 -14.00 -97.65 0.20 1.26 10.87 -0.03 0.08 0.11
1010 10.91 -14.00 -97.65 0.20 1.26 10.83 -0.01 0.07 0.10
1011 10.91 -14.00 -97.65 0.27 1.26 10.71 0.00 0.07 0.14
1012 11.00 -13.91 -97.45 0.31 1.29 10.75 0.00 0.06 0.14
1013 11.00 -13.91 -97.45 0.43 1.37 10.59 0.00 0.06 0.13
1014 11.00 -13.91 -97.45 0.31 1.41 10.71 -0.02 0.06 0.13
1015 11.00 -13.91 -97.45 0.20 1.29 10.63 -0.01 0.07 0.14
1016 11.00 -13.91 -97.45 0.31 1.37 10.67 -0.01 0.08 0.16
1017 11.00 -13.91 -97.45 0.35 1.33 10.63 -0.01 0.08 0.18
1018 11.00 -13.91 -97.45 0.31 1.26 10.67 -0.02 0.08 0.16
1019 10.82 -14.18 -97.35 0.16 1.26 10.63 -0.03 0.06 0.12
1020 10.82 -14.18 -97.35 0.27 1.18 10.75 -0.03 0.05 0.10
1021 10.82 -14.18 -97.35 0.08 1.33 10.67 -0.02 0.03 0.06
1022 10.82 -14.18 -97.35 0.20 1.29 10.63 -0.00 0.02 0.05
1023 10.82 -14.18 -97.35 0.27 1.26 10.71 -0.00 0.02 0.05
1024 10.82 -14.18 -97.35 0.16 1.29 10.63 -0.00 0.06 0.03
1025 10.82 -14.18 -97.35 0.20 1.29 10.55 0.02 0.04 0.03
1026 10.82 -14.36 -97.45 0.12 1.41 10.55 0.03 0.06 0.01
1027 10.82 -14.36 -97.45 0.27 1.37 10.63 -0.00 0.07 0.03
1028 10.82 -14.36 -97.45 0.35 1.37 10.75 -0.01 0.08 0.03
1029 10.82 -14.36 -97.45 0.27 1.37 10.71 -0.02 0.06 0.05
1030 10.82 -14.36 -97.45 0.16 1.33 10.75 -0.03 0.05 0.03
1031 10.82 -14.36 -97.45 0.12 1.29 10.71 -0.03 0.04 0.03
1032 10.82 -14.36 -97.45 0.16 1.33 10.75 -0.04 0.06 0.04
1033 10.82 -14.18 -97.04 0.16 1.37 10.71 -0.01 0.07 0.05
1034 10.82 -14.18 -97.04 0.16 1.37 10.63 0.02 0.08 0.05
1035 10.82 -14.18 -97.04 0.27 1.29 10.71 0.02 0.08 0.05
1036 10.82 -14.18 -97.04 0.27 1.33 10.71 0.02 0.08 0.05
1037 10.82 -14.18 -97.04 0.27 1.37 10.71 0.01 0.08 0.07
1038 10.82 -14.18 -97.04 0.12 1.29 10.59 0.02 0.06 0.09
1039 11.00 -14.09 -97.14 0.12 1.29 10.59 0.02 0.04 0.08
1040 11.00 -14.09 -97.14 0.20 1.29 10.67 -0.01 0.05 0.07
1041 11.00 -14.09 -97.14 0.08 1.33 10.63 -0.01 0.05 0.07
1042 11.00 -14.09 -97.14 0.24 1.37 10.75 -0.01 0.06 0.07
1043 11.00 -14.09 -97.14 0.16 1.33 10.67 -0.04 0.07 0.04
1044 11.00 -14.09 -97.14 0.24 1.41 10.75 -0.04 0.07 0.03
1045 11.00 -14.09 -97.14 0.04 1.37 10.71 -0.04 0.06 0.05
1046 11.09 -14.36 -97.04 0.16 1.29 10.87 -0.01 0.06 0.05
1047 11.09 -14.36 -97.04 0.08 1.29 10.67 -0.00 0.05 0.06
1048 11.09 -14.36 -97.04 0.08 1.29 10.75 -0.01 0.04 0.08
1049 11.09 -14.36 -97.04 0.12 1.33 10.67 -0.01 0.03 0.09
1050 11.09 -14.36 -97.04 0.04 1.22 10.67 -0.04 0.04 0.09
1051 11.09 -14.36 -97.04 0.16 1.29 10.79 -0.08 0.04 0.09
1052 11.09 -14.36 -97.04 0.20 1.22 10.75 -0.09 0.06 0.11
1053 11.09 -14.27 -97.24 0.12 1.26 10.71 -0.07 0.08 0.14
1054 11.09 -14.27 -97.24 0.24 1.29 10.63 -0.04 0.09 0.17
1055 11.09 -14.27 -97.24 0.16 1.29 10.63 -0.00 0.08 0.17
1056 11.09 -14.27 -97.24 0.12 1.29 10.71 0.01 0.07 0.19
1057 11.09 -14.27 -97.24 0.47 1.26 10.83 0.01 0.07 0.19
1058 11.09 -14.27 -97.24 0.08 1.33 10.59 0.04 0.05 0.15
1059 11.18 -14.09 -97.14 0.08 1.29 10.67 0.03 0.05 0.05
1060 11.18 -14.09 -97.14 0.08 1.33 10.51 -0.01 0.05 0.04
1061 11.18 -14.09 -97.14 0.08 1.37 10.59 -0.03 0.07 0.06
1062 11.18 -14.09 -97.14 0.12 1.22 10.75 0.00 0.08 0.09
1063 11.18 -14.09 -97.14 0.08 1.29 10.63 0.05 0.08 0.10
1064 11.18 -14.09 -97.14 0.16 1.37 10.55 0.06 0.08 0.11
1065 11.18 -14.09 -97.14 0.08 1.33 10.59 0.03 0.09 0.12
1066 11.27 -14.45 -97.04 0.16 1.41 10.59 -0.02 0.10 0.14
1067 11.27 -14.45 -97.04 0.16 1.41 10.63 -0.02 0.10 0.14
1068 11.27 -14.45 -97.04 0.04 1.37 10.71 -0.05 0.10 0.14
1069 11.27 -14.45 -97.04 0.16 1.33 10.79 -0.05 0.09 0.10
1070 11.27 -14.45 -97.04 0.20 1.41 10.63 -0.05 0.07 0.07
1071 11.27 -14.45 -97.04 0.24 1.37 10.75 -0.02 0.06 0.05
1072 11.27 -14.45 -97.04 0.08 1.41 10.71 0.02 0.06 0.04
1073 11.18 -14.91 -97.04 0.04 1.33 10.67 0.02 0.05 0.05
1074 11.18 -14.91 -97.04 0.08 1.37 10.67 -0.01 0.05 0.05
1075 11.18 -14.91 -97.04 0.08 1.37 10.63 -0.03 0.05 0.05
1076 11.18 -14.91 -97.04 0.04 1.33 10.79 -0.03 0.05 0.07
1077 11.18 -14.91 -97.04 0.08 1.41 10.75 -0.04 0.04 0.11
1078 11.18 -14.91 -97.04 0.04 1.41 10.63 -0.04 0.04 0.11
1079 11.18 -14.91 -97.04 0.08 1.37 10.67 -0.01 0.03 0.11
1080 11.18 -14.73 -96.94 -0.08 1.33 10.59 0.03 0.03 0.10
1081 11.18 -14.73 -96.94 -0.04 1.33 10.79 0.04 0.05 0.11
1082 11.18 -14.73 -96.94 0.04 1.29 10.71 0.02 0.07 0.09
1083 11.18 -14.73 -96.94 0.16 1.37 10.67 -0.02 0.07 0.09
1084 11.18 -14.73 -96.94 0.00 1.37 10.67 -0.07 0.07 0.07
1085 11.18 -14.73 -96.94 0.08 1.37 10.59 -0.08 0.05 0.07
1086 11.00 -14.45 -96.84 0.12 1.33 10.67 -0.08 0.03 0.05
1087 11.00 -14.45 -96.84 0.16 1.37 10.75 -0.07 0.01 0.02
1088 11.00 -14.45 -96.84 0.12 1.37 10.67 -0.04 0.01 0.02
1089 11.00 -14.45 -96.84 -0.04 1.33 10.75 -0.04 0.01 0.02
1090 11.00 -14.45 -96.84 0.04 1.33 10.47 -0.02 0.01 0.05
1091 11.00 -14.45 -96.84 0.24 1.29 10.67 -0.02 0.03 0.08
1092 11.00 -14.45 -96.84 0.04 1.22 10.67 -0.00 0.04 0.10
1093 11.09 -14.64 -97.14 0.12 1.22 10.71 -0.00 0.05 0.14
1094 11.09 -14.64 -97.14 0.16 1.29 10.79 -0.05 0.07 0.18
1095 11.09 -14.64 -97.14 0.08 1.29 10.71 -0.08 0.08 0.14
1096 11.09 -14.64 -97.14 0.08 1.26 10.67 -0.13 0.07 0.12
1097 11.09 -14.64 -97.14 0.08 1.29 10.79 -0.13 0.06 0.10
1098 11.09 -14.64 -97.14 0.08 1.22 10.87 -0.09 0.04 0.07
1099 11.09 -14.64 -97.14 0.04 1.29 10.87 -0.05 0.02 0.06
1100 11.36 -14.82 -97.14 0.04 1.14 10.83 -0.05 0.02 0.07
1101 11.36 -14.82 -97.14 0.00 1.29 10.67 -0.03 0.02 0.07
1102 11.36 -14.82 -97.14 0.12 1.29 10.63 -0.04 0.03 0.07
1103 11.36 -14.82 -97.14 0.12 1.33 10.59 -0.04 0.04 0.07
1104 11.36 -14.82 -97.14 0.04 1.26 10.71 -0.04 0.04 0.07
1105 11.36 -14.82 -97.14 -0.04 1.29 10.59 -0.05 0.04 0.08
1106 11.27 -14.55 -97.24 0.08 1.26 10.67 -0.07 0.05 0.10
1107 11.27 -14.55 -97.24 0.04 1.26 10.71 -0.06 0.05 0.13
1108 11.27 -14.55 -97.24 -0.04 1.22 10.71 -0.05 0.05 0.14
1109 11.27 -14.55 -97.24 0.16 1.10 10.87 -0.06 0.06 0.14
1110 11.27 -14.55 -97.24 -0.04 1.22 10.71 -0.03 0.04 0.09
1111 11.27 -14.55 -97.24 0.00 1.22 10.71 -0.02 0.05 0.06
1112 11.27 -14.55 -97.24 0.20 1.18 10.83 -0.02 0.05 0.09
1113 11.45 -14.55 -96.84 0.00 1.29 10.71 0.00 0.08 0.09
1114 11.45 -14.55 -96.84 0.04 1.26 10.67 0.03 0.09 0.09
1115 11.45 -14.55 -96.84 0.00 1.29 10.67 0.03 0.08 0.11
1116 11.45 -14.55 -96.84 -0.04 1.26 10.59 0.03 0.09 0.13
1117 11.45 -14.55 -96.84 0.00 1.22 10.67 -0.02 0.11 0.16
1118 11.45 -14.55 -96.84 0.08 1.18 10.75 -0.08 0.14 0.20
1119 11.45 -14.55 -96.84 0.00 1.26 10.59 -0.11 0.15 0.22
1120 11.36 -15.00 -96.84 0.08 1.22 10.59 -0.10 0.14 0.23
1121 11.36 -15.00 -96.84 0.08 1.14 10.75 -0.09 0.12 0.24
1122 11.36 -15.00 -96.84 0.12 1.14 10.75 -0.07 0.10 0.23
1123 11.36 -15.00 -96.84 0.08 1.18 10.67 -0.07 0.10 0.19
1124 11.36 -15.00 -96.84 -0.08 1.18 10.71 -0.07 0.09 0.19
1125 11.36 -15.00 -96.84 0.00 1.18 10.67 -0.10 0.09 0.18
1126 0.00 0.00 0.00 -0.08 1.26 10.79 -0.09 0.09 0.18
1127 11.18 -14.91 -96.63 -0.12 1.18 10.40 -0.05 0.10 0.21
1128 11.18 -14.91 -96.63 -0.04 1.22 10.90 -0.04 0.10 0.26
1129 11.18 -14.91 -96.63 -0.04 1.18 10.79 -0.03 0.10 0.31
1130 11.18 -14.91 -96.63 -0.12 1.26 10.67 -0.05 0.10 0.34
1131 11.18 -14.91 -96.63 -0.16 1.14 10.90 -0.08 0.12 0.41
1132 11.18 -14.91 -96.63 -0.08 1.33 10.75 -0.11 0.13 0.49
1133 11.18 -15.27 -96.94 -0.24 1.29 10.63 -0.18 0.14 0.59
1134 11.18 -15.27 -96.94 -0.08 1.18 10.79 -0.20 0.15 0.70
1135 11.18 -15.27 -96.94 0.08 1.14 10.75 -0.20 0.15 0.70
1136 11.18 -15.27 -96.94 -0.12 1.06 10.98 -0.20 0.13 0.70
1137 11.18 -15.27 -96.94 -0.16 1.10 10.63 -0.22 0.12 0.69
1138 11.18 -15.27 -96.94 -0.24 1.06 10.59 -0.24 0.10 0.69
1139 11.18 -15.27 -96.94 -0.12 1.14 10.63 -0.26 0.09 0.72
1140 10.36 -15.09 -96.84 -0.27 1.10 10.51 -0.29 0.09 0.76
1141 10.36 -15.09 -96.84 -0.08 0.94 10.67 -0.37 0.10 0.89
1142 10.36 -15.09 -96.84 0.04 0.94 10.83 -0.46 0.09 1.05
1143 10.36 -15.09 -96.84 0.08 0.90 10.59 -0.49 0.09 1.11
1144 10.36 -15.09 -96.84 -0.16 0.78 10.87 -0.50 0.15 1.09
1145 10.36 -15.09 -96.84 -0.04 0.67 10.90 -0.49 0.18 1.12
1146 9.91 -15.27 -97.35 0.12 0.59 11.10 -0.40 0.19 1.08
1147 9.91 -15.27 -97.35 -0.24 0.59 10.87 -0.34 0.19 1.01
1148 9.91 -15.27 -97.35 -0.12 0.55 11.10 -0.34 0.19 1.01
1149 9.91 -15.27 -97.35 -0.39 0.67 10.83 -0.36 0.20 1.08
1150 9.91 -15.27 -97.35 -0.27 0.75 10.87 -0.40 0.21 1.19
1151 9.91 -15.27 -97.35 -0.47 0.75 10.94 -0.47 0.25 1.40
1152 9.91 -15.27 -97.35 -0.67 0.82 10.83 -0.55 0.23 1.68
1153 8.64 -15.09 -97.76 -0.43 0.63 11.02 -0.64 0.20 2.00
1154 8.64 -15.09 -97.76 -0.39 0.35 10.90 -0.72 0.20 2.35
1155 8.64 -15.09 -97.76 -0.51 0.20 11.14 -0.74 0.17 2.61
1156 8.64 -15.09 -97.76 -0.12 -0.08 11.34 -0.69 0.11 2.79
1157 8.64 -15.09 -97.76 -0.04 -0.08 11.38 -0.58 0.09 2.80
1158 8.64 -15.09 -97.76 -0.12 -0.27 11.18 -0.43 0.06 2.76
1159 8.64 -15.09 -97.76 -0.08 -0.16 10.75 -0.34 -0.02 2.68
1160 6.18 -15.45 -97.96 -0.20 -0.08 10.71 -0.34 -0.02 2.68
1161 6.18 -15.45 -97.96 0.04 -0.08 10.79 -0.35 -0.05 2.63
1162 6.18 -15.45 -97.96 -0.08 -0.39 10.67 -0.41 -0.02 2.71
1163 6.18 -15.45 -97.96 -0.39 -0.27 10.28 -0.38 -0.00 2.72
1164 6.18 -15.45 -97.96 -0.47 0.04 10.43 -0.26 -0.00 2.69
1165 6.18 -15.45 -97.96 -0.27 -0.08 10.28 -0.09 0.07 2.75
1166 3.55 -16.36 -97.76 -0.55 -0.04 10.63 0.06 0.17 2.90
1167 3.55 -16.36 -97.76 -0.67 -0.12 10.75 0.17 0.29 2.93
1168 3.55 -16.36 -97.76 -0.43 0.31 10.75 0.27 0.41 2.93
1169 3.55 -16.36 -97.76 -0.43 0.12 10.55 0.34 0.52 2.99
1170 3.55 -16.36 -97.76 -0.43 0.39 10.55 0.31 0.59 3.14
1171 3.55 -16.36 -97.76 -0.16 0.00 11.10 0.20 0.60 3.36
1172 3.55 -16.36 -97.76 -0.27 -0.43 10.83 0.20 0.60 3.52
1173 1.64 -18.00 -97.04 -0.08 0.00 11.10 0.09 0.61 3.52
1174 1.64 -18.00 -97.04 -0.43 0.27 10.83 0.03 0.60 3.40
1175 1.64 -18.00 -97.04 -0.31 -0.35 10.98 -0.08 0.43 3.21
1176 1.64 -18.00 -97.04 -0.35 -0.78 10.94 -0.23 0.15 3.09
1177 1.64 -18.00 -97.04 -0.75 -0.47 10.98 -0.22 0.05 2.95
1178 1.64 -18.00 -97.04 -0.78 -0.27 10.55 -0.04 -0.05 2.70
1179 1.64 -18.36 -96.63 -0.94 -0.08 10.63 0.18 -0.13 2.44
1180 -1.64 -18.36 -96.63 -0.94 -0.08 10.79 0.46 -0.10 2.22
1181 -1.64 -18.36 -96.63 -0.67 0.24 10.79 0.65 -0.02 2.03
1182 -1.64 -18.36 -96.63 -0.63 0.35 10.75 0.71 0.09 1.92
1183 -1.64 -18.36 -96.63 -0.51 0.27 10.75 0.70 0.15 1.99
1184 -1.64 -18.36 -96.63 -0.82 0.71 11.02 0.75 0.15 2.27
1185 -1.64 -18.36 -96.63 -1.14 1.06 10.87 0.75 0.15 2.27
1186 -4.18 -20.00 -95.71 -0.90 0.90 10.75 0.72 0.11 2.49
1187 -4.18 -20.00 -95.71 -0.59 0.75 10.98 0.56 0.12 2.58
1188 -4.18 -20.00 -95.71 -0.67 0.47 10.98 0.40 0.16 2.64
1189 -4.18 -20.00 -95.71 -0.75 0.78 10.98 0.29 0.17 2.72
1190 -4.18 -20.00 -95.71 -0.75 0.82 11.06 0.25 0.16 2.68
1191 -4.18 -20.00 -95.71 -0.78 0.82 10.90 0.28 0.12 2.64
1192 -4.18 -20.00 -95.71 -0.98 0.94 10.87 0.36 -0.01 2.75
1193 -7.27 -20.73 -95.51 -0.59 1.02 11.10 0.37 -0.11 2.71
1194 -7.27 -20.73 -95.51 -0.67 1.26 10.87 0.25 -0.20 2.60
1195 -7.27 -20.73 -95.51 -0.51 1.22 10.71 0.03 -0.27 2.62
1196 -7.27 -20.73 -95.51 -0.63 0.98 10.51 -0.03 -0.21 2.58
1197 -7.27 -20.73 -95.51 -0.35 0.98 10.59 -0.03 -0.21 2.63
1198 -7.27 -20.73 -95.51 -0.51 1.18 10.63 0.10 -0.09 2.63
1199 -10.64 -19.64 -95.00 -0.63 0.82 10.83 0.19 -0.04 2.72
1200 -10.64 -19.64 -95.00 -0.35 0.63 10.83 0.23 -0.11 2.60
1201 -10.64 -19.64 -95.00 -0.12 0.35 10.63 0.21 -0.17 2.39
1202 -10.64 -19.64 -95.00 0.00 0.86 10.87 0.05 -0.23 2.19
1203 -10.64 -19.64 -95.00 -0.04 1.02 10.47 -0.14 -0.24 1.93
1204 -10.64 -19.64 -95.00 -0.16 1.22 10.51 -0.24 -0.24 1.66
1205 -10.64 -19.64 -95.00 0.00 1.65 10.20 -0.32 -0.32 1.59
1206 -13.55 -18.45 -94.59 -0.27 1.26 10.98 -0.42 -0.41 1.69
1207 -13.55 -18.45 -94.59 -0.04 1.10 10.94 -0.36 -0.38 1.61
1208 -13.55 -18.45 -94.59 0.04 0.94 10.83 -0.19 -0.26 1.60
1209 -13.55 -18.45 -94.59 -0.04 0.90 10.75 -0.23 -0.23 1.79
1210 -13.55 -18.45 -94.59 0.08 0.78 10.90 -0.31 -0.17 1.72
1211 -13.55 -18.45 -94.59 0.16 0.55 11.06 -0.39 -0.15 1.67
1212 -16.36 -16.18 -94.90 0.24 0.39 10.94 -0.43 -0.16 1.72
1213 -16.36 -16.18 -94.90 0.04 0.63 10.71 -0.42 -0.18 1.81
1214 -16.36 -16.18 -94.90 0.24 0.35 10.71 -0.54 -0.13 1.67
1215 -16.36 -16.18 -94.90 0.12 0.51 10.83 -0.54 -0.08 1.56
1216 -16.36 -16.18 -94.90 0.00 0.71 10.75 -0.50 -0.08 1.56
1217 -16.36 -16.18 -94.90 0.20 0.55 10.63 -0.50 -0.07 1.59
1218 -16.36 -16.18 -94.90 -0.04 0.63 10.90 -0.46 -0.05 1.60
1219 -17.73 -13.55 -95.20 0.63 0.35 10.51 -0.17 -0.01 1.52
1220 -17.73 -13.55 -95.20 0.12 0.31 10.98 -0.02 -0.03 1.48
1221 -17.73 -13.55 -95.20 0.27 0.08 10.67 -0.10 -0.14 1.48
1222 -17.73 -13.55 -95.20 0.39 0.08 10.12 -0.22 -0.13 1.33
1223 -17.73 -13.55 -95.20 0.35 0.24 10.63 -0.28 -0.14 1.09
1224 -17.73 -13.55 -95.20 0.31 0.12 10.94 -0.30 -0.13 0.91
1225 -19.00 -12.18 -94.90 0.51 -0.08 10.63 -0.30 -0.12 0.79
1226 -19.00 -12.18 -94.90 0.16 0.08 10.79 -0.22 -0.18 0.77
1227 -19.00 -12.18 -94.90 0.47 0.16 10.55 -0.13 -0.12 0.65
1228 -19.00 -12.18 -94.90 0.47 0.00 10.90 -0.13 -0.07 0.51
1229 -19.00 -12.18 -94.90 0.51 -0.16 10.59 -0.27 -0.02 0.35
1230 -19.00 -12.18 -94.90 0.67 0.16 10.75 -0.46 0.12 0.23
1231 -19.00 -12.18 -94.90 0.43 0.00 10.94 -0.59 0.16 0.25
1232 -19.00 -12.18 -94.90 0.35 -0.08 10.94 -0.59 0.13 0.32
1233 -19.00 -12.18 -94.90 0.16 -0.08 10.87 -0.59 0.01 0.30
1234 -19.00 -12.18 -94.90 0.39 -0.04 10.98 -0.42 0.04 0.30
1235 -19.00 -12.18 -94.90 0.43 0.00 11.02 -0.19 -0.05 0.29
1236 -19.00 -12.18 -94.90 0.51 0.04 11.10 0.01 -0.06 0.28
1237 -19.00 -12.18 -94.90 0.35 -0.08 11.06 0.15 -0.04 0.26
1238 -19.64 -10.82 -95.00 0.43 -0.78 10.16 0.22 0.03 0.29
1239 -19.64 -10.82 -95.00 0.24 -0.78 10.32 0.07 0.06 0.23
1240 -19.64 -10.82 -95.00 0.35 -0.39 10.59 -0.33 0.08 0.00
1241 -19.64 -10.82 -95.00 0.24 0.00 10.87 -0.61 0.15 -0.17
1242 -19.64 -10.82 -95.00 0.35 0.12 11.06 -0.63 0.19 -0.27
1243 -19.64 -10.82 -95.00 0.31 0.04 11.10 -0.48 0.12 -0.25
1244 -19.64 -10.82 -95.00 0.35 0.00 11.06 -0.32 0.03 -0.20
1245 -19.64 -10.82 -95.00 0.20 0.08 11.10 -0.16 0.00 -0.18
1246 -19.64 -10.82 -95.00 0.35 0.00 11.14 0.00 -0.03 -0.13
1247 -19.64 -10.82 -95.00 0.43 -0.08 11.10 0.16 -0.07 -0.08
1248 -19.64 -10.82 -95.00 0.31 -0.35 10.98 0.24 -0.10 -0.07
1249 -19.64 -10.82 -95.00 0.31 -0.35 10.87 0.32 -0.05 -0.08
1250 -19.64 -10.82 -95.00 0.67 -0.35 10.63 0.38 -0.03 -0.12
1251 -19.64 -10.73 -95.41 0.63 -0.31 10.55 0.38 -0.03 -0.14
1252 -19.64 -10.73 -95.41 0.59 -0.27 10.12 0.23 -0.05 -0.14
1253 -19.64 -10.73 -95.41 0.63 0.00 10.94 -0.03 -0.01 -0.18
1254 -19.64 -10.73 -95.41 0.59 0.00 10.20 -0.15 0.12 -0.14
1255 -19.64 -10.73 -95.41 0.43 0.00 10.75 -0.22 0.19 -0.13
1256 -19.64 -10.73 -95.41 0.43 0.08 10.59 -0.14 0.26 -0.12
1257 -19.09 -11.00 -95.71 0.27 -0.12 10.47 -0.11 0.28 -0.13
1258 -19.09 -11.00 -95.71 0.27 -0.24 10.40 -0.20 0.21 -0.14
1259 -19.09 -11.00 -95.71 0.24 -0.27 10.43 -0.29 0.19 -0.20
1260 -19.09 -11.00 -95.71 0.31 -0.12 10.63 -0.31 0.16 -0.23
1261 -19.09 -11.00 -95.71 0.12 -0.20 10.71 -0.21 0.13 -0.17
1262 -19.09 -11.00 -95.71 0.24 -0.08 10.98 0.01 0.11 -0.08
1263 -19.09 -11.00 -95.71 0.31 -0.12 10.59 0.20 0.09 -0.01
1264 -19.09 -10.82 -96.12 0.39 -0.16 10.75 0.23 0.09 0.06
1265 -19.09 -10.82 -96.12 0.12 -0.16 10.98 0.13 0.09 0.01
1266 -19.09 -10.82 -96.12 0.27 -0.12 11.02 0.05 0.07 -0.05
1267 -19.09 -10.82 -96.12 0.12 -0.12 10.94 0.05 0.01 -0.06
1268 -19.09 -10.82 -96.12 0.20 -0.12 10.75 0.08 -0.02 -0.11
1269 -19.09 -10.82 -96.12 0.31 -0.12 10.87 0.07 -0.02 -0.12
1270 -19.00 -11.36 -96.02 0.31 -0.04 10.75 0.09 0.02 -0.07
1271 -19.00 -11.36 -96.02 0.43 0.00 10.63 0.09 0.02 -0.03
1272 -19.00 -11.36 -96.02 0.20 -0.16 10.59 0.09 0.04 -0.01
1273 -19.00 -11.36 -96.02 0.31 -0.16 10.63 0.02 0.05 0.01
1274 -19.00 -11.36 -96.02 0.31 -0.04 10.87 -0.11 0.04 -0.04
1275 -19.00 -11.36 -96.02 0.27 -0.12 10.90 -0.25 0.05 -0.13
1276 -19.00 -11.36 -96.02 0.35 -0.24 10.63 -0.28 0.06 -0.15
1277 -18.82 -10.91 -96.02 0.27 -0.39 10.67 -0.22 0.07 -0.11
1278 -18.82 -10.91 -96.02 0.20 -0.24 10.75 -0.17 0.07 -0.08
1279 -18.82 -10.91 -96.02 0.24 -0.39 10.67 -0.17 0.09 -0.07
1280 -18.82 -10.91 -96.02 0.12 -0.35 10.75 -0.17 0.11 -0.07
1281 -18.82 -10.91 -96.02 0.12 -0.31 10.90 -0.22 0.10 -0.13
1282 -18.82 -10.91 -96.02 0.08 0.00 10.94 -0.27 0.09 -0.22
1283 -18.45 -10.73 -95.92 0.27 -0.04 10.83 -0.15 0.09 -0.24
1284 -18.45 -10.73 -95.92 0.12 0.00 10.94 0.09 0.07 -0.15
1285 -18.45 -10.73 -95.92 0.20 -0.04 10.83 0.32 0.06 -0.01
1286 -18.45 -10.73 -95.92 0.20 -0.04 10.67 0.48 0.06 0.07
1287 -18.45 -10.73 -95.92 0.24 -0.24 10.47 0.53 0.06 0.11
1288 -18.45 -10.73 -95.92 0.27 -0.35 10.43 0.31 0.04 0.04
1289 -18.45 -10.73 -95.92 0.20 -0.31 10.83 0.31 0.04 -0.06
1290 -18.45 -10.73 -95.92 0.12 -0.24 10.83 -0.05 0.02 -0.06
1291 -18.45 -10.73 -95.92 0.24 -0.35 10.63 -0.21 0.01 -0.10
1292 -18.45 -10.73 -95.92 0.27 -0.27 10.55 -0.22 -0.01 -0.14
1293 -18.45 -10.73 -95.92 0.12 -0.27 10.87 -0.29 -0.01 -0.14
1294 -18.45 -10.73 -95.92 0.24 -0.16 10.67 -0.34 0.04 -0.14
1295 -18.45 -10.73 -95.92 0.27 -0.08 10.79 -0.30 0.11 -0.19
1296 -18.18 -11.00 -96.12 0.24 -0.08 10.87 -0.24 0.12 -0.18
1297 -18.18 -11.00 -96.12 0.24 -0.04 10.79 -0.12 0.09 -0.14
1298 -18.18 -11.00 -96.12 0.27 0.04 10.83 0.03 0.07 -0.09
1299 -18.18 -11.00 -96.12 0.27 -0.20 10.83 0.17 0.07 -0.05
1300 -18.18 -11.00 -96.12 0.24 -0.24 10.87 0.21 0.08 -0.04
1301 -18.18 -11.00 -96.12 0.16 -0.31 10.87 0.16 0.07 -0.02
1302 -17.73 -11.45 -96.12 0.16 -0.43 10.75 0.09 0.05 -0.04
1303 -17.73 -11.45 -96.12 0.12 -0.39 10.75 -0.01 0.04 -0.09
1304 -17.73 -11.45 -96.12 0.16 -0.31 10.51 -0.10 0.04 -0.12
1305 -17.73 -11.45 -96.12 0.20 -0.20 10.55 -0.16 0.03 -0.13
1306 -17.73 -11.45 -96.12 0.16 -0.27 10.59 -0.14 0.01 -0.09
1307 -17.73 -11.45 -96.12 0.20 -0.20 10.79 -0.09 0.00 -0.03
1308 -17.73 -11.45 -96.12 0.24 -0.12 10.63 -0.02 0.01 -0.00
1309 -17.64 -11.27 -96.12 -0.08 -0.04 10.79 0.05 0.01 0.02
1310 -17.64 -11.27 -96.12 0.12 -0.04 10.75 0.12 0.01 0.04
1311 -17.64 -11.27 -96.12 0.04 -0.12 10.79 0.12 0.01 0.04
1312 -17.64 -11.27 -96.12 0.16 -0.12 10.71 0.14 0.01 0.03
1313 -17.64 -11.27 -96.12 0.12 -0.20 10.51 0.12 0.02 -0.00
1314 -17.64 -11.27 -96.12 0.16 -0.24 10.79 0.06 0.01 -0.03
1315 -17.64 -11.73 -96.22 0.08 -0.31 10.63 0.02 0.01 -0.05
1316 -17.64 -11.73 -96.22 0.20 -0.27 10.63 -0.02 0.00 -0.08
1317 -17.64 -11.73 -96.22 0.27 -0.35 10.71 -0.09 -0.01 -0.09
1318 -17.64 -11.73 -96.22 0.24 -0.27 10.98 -0.09 -0.01 -0.06
1319 -17.64 -11.73 -96.22 0.16 -0.24 10.83 -0.06 0.00 -0.02
1320 -17.64 -11.73 -96.22 0.12 -0.24 10.87 -0.04 0.02 -0.00
1321 -17.64 -11.55 -96.02 0.27 -0.12 10.98 -0.03 0.03 0.00
1322 -17.64 -11.55 -96.02 0.24 -0.08 10.87 -0.02 0.04 0.02
1323 -17.64 -11.55 -96.02 0.27 -0.16 10.87 0.02 0.05 0.03
1324 -17.64 -11.55 -96.02 0.31 -0.24 10.87 0.07 0.04 0.03
1325 -17.64 -11.55 -96.02 0.31 -0.12 10.94 0.07 0.04 -0.00
1326 -17.64 -11.55 -96.02 0.31 -0.24 10.79 0.04 0.06 -0.01
1327 -17.64 -11.55 -96.02 0.27 -0.35 10.75 0.01 0.06 0.01
1328 -17.73 -11.55 -95.71 0.27 -0.27 10.59 -0.04 0.05 0.00
1329 -17.73 -11.55 -95.71 0.27 -0.31 10.63 -0.04 0.05 -0.04
1330 -17.73 -11.55 -95.71 0.20 -0.31 10.71 -0.12 0.05 -0.02
1331 -17.73 -11.55 -95.71 0.20 -0.20 10.71 -0.19 0.04 -0.01
1332 -17.73 -11.55 -95.71 0.16 -0.16 10.75 -0.20 0.03 -0.02
1333 -17.73 -11.55 -95.71 0.16 -0.08 10.79 -0.19 0.02 -0.04
1334 -17.36 -11.00 -96.43 0.08 -0.16 10.67 -0.14 0.03 -0.04
1335 -17.36 -11.00 -96.43 0.08 -0.16 10.71 -0.08 0.05 -0.02
1336 -17.36 -11.00 -96.43 0.12 -0.27 10.71 0.00 0.05 -0.02
1337 -17.36 -11.00 -96.43 0.08 -0.31 10.59 0.05 0.04 -0.00
1338 -17.36 -11.00 -96.43 0.12 -0.43 10.71 0.02 0.04 -0.00
1339 -17.36 -11.00 -96.43 0.08 -0.35 10.83 -0.05 0.03 -0.03
1340 -17.36 -11.00 -96.43 0.08 -0.39 10.71 -0.12 0.01 -0.04
1341 -17.45 -11.27 -96.22 0.16 -0.43 10.67 -0.15 0.00 -0.02
1342 -17.45 -11.27 -96.22 0.04 -0.39 10.75 -0.13 0.01 0.01
1343 -17.45 -11.27 -96.22 0.04 -0.24 10.63 -0.16 0.02 0.01
1344 -17.45 -11.27 -96.22 0.08 -0.16 10.67 -0.18 0.03 -0.02
1345 -17.45 -11.27 -96.22 0.08 -0.08 10.83 -0.18 0.03 -0.03
1346 -17.45 -11.27 -96.22 0.08 -0.16 10.83 -0.15 0.02 -0.03
1347 -17.36 -11.00 -96.22 0.12 -0.16 10.79 -0.07 0.01 -0.02
1348 -17.36 -11.00 -96.22 0.16 -0.24 10.75 0.01 0.01 -0.01
1349 -17.36 -11.00 -96.22 0.31 -0.39 10.71 0.01 0.02 -0.01
1350 -17.36 -11.00 -96.22 0.24 -0.31 10.75 0.01 0.03 0.02
1351 -17.36 -11.00 -96.22 0.20 -0.39 10.71 0.02 0.03 0.02
1352 -17.36 -11.00 -96.22 0.24 -0.55 10.79 0.08 0.03 0.06
1353 -17.36 -11.00 -96.22 0.31 -0.39 10.59 0.11 0.01 0.08
1354 -17.45 -11.27 -96.12 0.31 -0.31 10.75 0.10 0.01 0.06
1355 -17.45 -11.27 -96.12 0.31 -0.31 10.79 0.04 0.01 0.06
1356 -17.45 -11.27 -96.12 0.27 -0.39 10.63 -0.03 0.01 0.02
1357 -17.45 -11.27 -96.12 0.31 -0.31 10.90 -0.10 -0.00 -0.01
1358 -17.45 -11.27 -96.12 0.31 -0.27 10.83 -0.12 -0.02 -0.03
1359 -17.45 -11.27 -96.12 0.24 -0.31 10.90 -0.12 -0.02 -0.04
1360 -17.64 -11.00 -96.12 0.24 -0.27 10.90 -0.07 -0.00 -0.03
1361 -17.64 -11.00 -96.12 0.31 -0.27 11.02 -0.05 0.02 -0.02
1362 -17.64 -11.00 -96.12 0.24 -0.27 11.06 -0.03 0.04 -0.00
1363 -17.64 -11.00 -96.12 0.31 -0.27 10.90 -0.01 0.05 0.02
1364 -17.64 -11.00 -96.12 0.24 -0.24 10.75 -0.02 0.05 0.04
1365 -17.64 -11.00 -96.12 0.20 -0.35 10.83 -0.03 0.05 0.05
1366 -17.64 -10.82 -96.12 0.24 -0.31 10.59 -0.05 0.05 0.04
1367 -17.27 -10.82 -96.12 0.20 -0.35 10.71 -0.08 0.05 0.03
1368 -17.27 -10.82 -96.12 0.20 -0.35 10.67 -0.09 0.04 0.00
1369 -17.27 -10.82 -96.12 0.08 -0.39 10.75 -0.09 0.04 0.00
1370 -17.27 -10.82 -96.12 0.12 -0.39 10.43 -0.09 0.04 0.00
1371 -17.27 -10.82 -96.12 0.12 -0.35 10.43 -0.10 0.03 -0.01
1372 -17.27 -10.82 -96.12 0.12 -0.39 10.71 -0.13 0.02 -0.02
1373 -17.64 -10.82 -96.33 0.16 -0.39 10.63 -0.13 0.00 -0.00
1374 -17.64 -10.82 -96.33 0.04 -0.43 10.79 -0.12 0.00 -0.00
1375 -17.64 -10.82 -96.33 0.16 -0.55 10.59 -0.13 0.01 -0.01
1376 -17.64 -10.82 -96.33 0.12 -0.43 10.59 -0.13 0.02 -0.02
1377 -17.64 -10.82 -96.33 0.24 -0.47 10.59 -0.13 0.02 -0.04
1378 -17.64 -10.82 -96.33 0.24 -0.35 10.63 -0.14 0.01 -0.03
1379 -17.27 -10.36 -96.12 0.31 -0.55 10.59 -0.15 0.00 -0.03
1380 -17.27 -10.36 -96.12 0.20 -0.43 10.59 -0.16 -0.00 -0.02
1381 -17.27 -10.36 -96.12 0.24 -0.43 10.63 -0.16 -0.01 -0.02
1382 -17.27 -10.36 -96.12 0.20 -0.47 10.79 -0.19 -0.02 -0.02
1383 -17.27 -10.36 -96.12 0.20 -0.51 10.79 -0.21 -0.02 -0.06
1384 -17.27 -10.36 -96.12 0.27 -0.71 10.79 -0.17 -0.02 -0.05
1385 -17.27 -10.36 -96.12 0.27 -0.59 10.75 -0.12 -0.02 -0.05
1386 -17.73 -10.09 -96.84 0.31 -0.71 10.83 -0.13 -0.01 -0.06
1387 -17.73 -10.09 -96.84 0.31 -0.75 10.83 -0.11 -0.00 -0.04
1388 -17.73 -10.09 -96.84 0.35 -0.75 10.75 -0.09 -0.00 -0.02
1389 -17.73 -10.09 -96.84 0.35 -0.67 10.83 -0.13 -0.00 -0.03
1390 -17.73 -10.09 -96.84 0.24 -0.63 10.87 -0.17 0.01 -0.03
1391 -17.73 -10.09 -96.84 0.31 -0.67 10.90 -0.18 0.01 -0.03
1392 -17.55 -10.00 -96.43 0.31 -0.67 10.94 -0.16 0.01 0.00
1393 -17.55 -10.00 -96.43 0.20 -0.63 10.75 -0.10 0.02 0.01
1394 -17.55 -10.00 -96.43 0.24 -0.71 10.87 -0.01 0.03 0.05
1395 -17.55 -10.00 -96.43 0.39 -0.67 10.90 -0.01 0.03 0.07
1396 -17.55 -10.00 -96.43 0.31 -0.63 10.59 0.07 0.04 0.07
1397 -17.55 -10.00 -96.43 0.31 -0.59 10.63 0.08 0.04 0.07
1398 -17.45 -9.82 -96.43 0.31 -0.55 10.59 0.05 0.03 0.09
1399 -17.45 -9.82 -96.43 0.31 -0.63 10.63 0.01 0.02 0.06
1400 -17.45 -9.82 -96.43 0.39 -0.67 10.87 -0.05 0.01 0.04
1401 -17.45 -9.82 -96.43 0.24 -0.51 10.79 -0.06 0.01 0.04
1402 -17.45 -9.82 -96.43 0.20 -0.59 10.55 -0.05 0.01 0.03
1403 -17.45 -9.82 -96.43 0.27 -0.67 10.71 -0.03 0.02 0.04
1404 -17.45 -9.82 -96.43 0.27 -0.63 10.79 0.01 0.04 0.05
1405 -17.55 -10.09 -96.22 0.27 -0.59 10.75 0.01 0.03 0.05
1406 -17.55 -10.09 -96.22 0.27 -0.63 10.63 -0.05 0.03 0.01
